File: 论文/¬€Œƒ/¬€Œƒ/dsc/10%10mm.txt
Filename:	D:\TGAdata\„∆√ŒœÈ\20150506\10.pdid

Temperature (°„C)	Heat Flow Endo Up (mW)
10.68	2.2955
10.69	2.0574
10.73	1.8065
10.83	1.6491
10.93	1.5139
11.05	1.4169
11.17	1.3869
11.29	1.4327
11.42	1.5417
11.55	1.6945
11.68	1.8713
11.81	2.0532
11.94	2.2292
12.08	2.3935
12.21	2.5420
12.34	2.6749
12.48	2.7893
12.60	2.8881
12.73	2.9730
12.87	3.0441
13.00	3.1059
13.13	3.1573
13.26	3.1994
13.40	3.2356
13.53	3.2651
13.66	3.2915
13.80	3.3138
13.93	3.3313
14.06	3.3470
14.19	3.3596
14.32	3.3722
14.46	3.3825
14.59	3.3907
14.72	3.3986
14.85	3.4055
14.99	3.4124
15.13	3.4187
15.25	3.4238
15.38	3.4287
15.52	3.4335
15.65	3.4385
15.78	3.4437
15.92	3.4480
16.05	3.4525
16.18	3.4568
16.31	3.4618
16.45	3.4668
16.58	3.4711
16.71	3.4756
16.84	3.4790
16.98	3.4825
17.11	3.4872
17.25	3.4908
17.38	3.4942
17.51	3.4982
17.64	3.5031
17.78	3.5074
17.91	3.5118
18.04	3.5170
18.17	3.5208
18.31	3.5252
18.44	3.5287
18.57	3.5316
18.70	3.5364
18.83	3.5399
18.97	3.5435
19.10	3.5475
19.23	3.5502
19.36	3.5540
19.50	3.5576
19.63	3.5601
19.77	3.5640
19.90	3.5674
20.03	3.5705
20.16	3.5747
20.29	3.5781
20.43	3.5817
20.55	3.5854
20.69	3.5886
20.82	3.5919
20.95	3.5955
21.08	3.5983
21.22	3.6030
21.35	3.6060
21.48	3.6092
21.61	3.6141
21.75	3.6174
21.88	3.6209
22.01	3.6259
22.14	3.6290
22.28	3.6325
22.40	3.6370
22.54	3.6401
22.68	3.6447
22.81	3.6489
22.94	3.6523
23.07	3.6572
23.20	3.6607
23.33	3.6644
23.47	3.6686
23.59	3.6717
23.73	3.6758
23.86	3.6798
23.99	3.6825
24.13	3.6872
24.26	3.6907
24.39	3.6939
24.52	3.6989
24.66	3.7022
24.79	3.7059
24.92	3.7102
25.05	3.7139
25.19	3.7181
25.32	3.7220
25.45	3.7251
25.58	3.7294
25.72	3.7334
25.84	3.7361
25.98	3.7413
26.11	3.7445
26.24	3.7484
26.38	3.7527
26.51	3.7566
26.64	3.7612
26.77	3.7652
26.91	3.7691
27.04	3.7738
27.17	3.7773
27.30	3.7816
27.44	3.7851
27.57	3.7875
27.70	3.7916
27.83	3.7950
27.97	3.7984
28.10	3.8032
28.23	3.8069
28.36	3.8107
28.50	3.8159
28.63	3.8194
28.77	3.8244
28.90	3.8286
29.03	3.8323
29.16	3.8374
29.30	3.8410
29.43	3.8442
29.56	3.8492
29.69	3.8530
29.82	3.8567
29.96	3.8610
30.09	3.8640
30.22	3.8690
30.35	3.8723
30.49	3.8762
30.62	3.8807
30.75	3.8836
30.89	3.8879
31.02	3.8916
31.15	3.8953
31.28	3.8998
31.42	3.9037
31.55	3.9067
31.68	3.9118
31.82	3.9158
31.94	3.9203
32.08	3.9249
32.21	3.9285
32.34	3.9330
32.47	3.9372
32.61	3.9408
32.74	3.9457
32.87	3.9491
33.00	3.9536
33.14	3.9578
33.27	3.9611
33.40	3.9653
33.53	3.9690
33.67	3.9719
33.80	3.9765
33.93	3.9797
34.07	3.9836
34.20	3.9881
34.33	3.9921
34.46	3.9970
34.59	4.0010
34.73	4.0048
34.86	4.0099
34.99	4.0136
35.13	4.0181
35.26	4.0217
35.39	4.0250
35.52	4.0301
35.66	4.0337
35.79	4.0373
35.92	4.0421
36.05	4.0456
36.18	4.0502
36.32	4.0543
36.45	4.0579
36.58	4.0627
36.72	4.0666
36.85	4.0698
36.98	4.0745
37.11	4.0781
37.24	4.0828
37.38	4.0872
37.51	4.0910
37.65	4.0960
37.78	4.1000
37.91	4.1041
38.04	4.1083
38.18	4.1114
38.31	4.1155
38.44	4.1192
38.58	4.1225
38.72	4.1275
38.84	4.1311
38.98	4.1351
39.10	4.1395
39.24	4.1429
39.38	4.1475
39.50	4.1515
39.63	4.1552
39.77	4.1600
39.90	4.1637
40.04	4.1680
40.16	4.1727
40.30	4.1759
40.43	4.1813
40.57	4.1849
40.70	4.1890
40.83	4.1936
40.96	4.1973
41.09	4.2015
41.23	4.2055
41.36	4.2093
41.49	4.2142
41.63	4.2182
41.76	4.2228
41.89	4.2272
42.02	4.2308
42.16	4.2357
42.29	4.2396
42.43	4.2441
42.55	4.2488
42.69	4.2529
42.83	4.2574
42.95	4.2615
43.08	4.2653
43.22	4.2699
43.35	4.2736
43.49	4.2781
43.62	4.2821
43.75	4.2857
43.88	4.2905
44.01	4.2943
44.15	4.2983
44.28	4.3028
44.41	4.3067
44.55	4.3115
44.67	4.3153
44.80	4.3186
44.94	4.3235
45.08	4.3276
45.20	4.3316
45.34	4.3361
45.47	4.3401
45.60	4.3456
45.74	4.3497
45.87	4.3538
46.00	4.3589
46.13	4.3629
46.27	4.3674
46.40	4.3717
46.53	4.3757
46.67	4.3805
46.80	4.3840
46.93	4.3884
47.07	4.3927
47.20	4.3965
47.33	4.4012
47.46	4.4056
47.59	4.4098
47.73	4.4146
47.86	4.4183
48.00	4.4236
48.13	4.4283
48.26	4.4324
48.39	4.4377
48.52	4.4413
48.66	4.4460
48.79	4.4504
48.93	4.4543
49.06	4.4592
49.19	4.4631
49.33	4.4675
49.45	4.4710
49.59	4.4744
49.72	4.4794
49.85	4.4838
49.99	4.4884
50.12	4.4929
50.25	4.4969
50.39	4.5019
50.52	4.5064
50.65	4.5106
50.78	4.5154
50.92	4.5195
51.05	4.5248
51.18	4.5291
51.31	4.5335
51.45	4.5384
51.58	4.5425
51.71	4.5470
51.84	4.5516
51.98	4.5560
52.11	4.5617
52.25	4.5657
52.38	4.5713
52.51	4.5759
52.65	4.5798
52.77	4.5850
52.90	4.5892
53.04	4.5933
53.17	4.5976
53.30	4.6017
53.44	4.6071
53.57	4.6121
53.70	4.6168
53.83	4.6219
53.97	4.6263
54.10	4.6315
54.23	4.6355
54.37	4.6398
54.50	4.6448
54.63	4.6490
54.77	4.6537
54.90	4.6587
55.04	4.6635
55.17	4.6693
55.30	4.6733
55.43	4.6785
55.55	4.6826
55.70	4.6862
55.83	4.6918
55.96	4.6962
56.09	4.7009
56.23	4.7059
56.36	4.7110
56.50	4.7165
56.63	4.7212
56.76	4.7263
56.90	4.7315
57.02	4.7361
57.16	4.7411
57.29	4.7454
57.43	4.7503
57.55	4.7555
57.69	4.7602
57.82	4.7651
57.96	4.7699
58.09	4.7748
58.22	4.7797
58.35	4.7840
58.49	4.7896
58.62	4.7950
58.75	4.7994
58.88	4.8052
59.02	4.8101
59.15	4.8158
59.29	4.8209
59.42	4.8262
59.55	4.8322
59.68	4.8372
59.82	4.8427
59.95	4.8476
60.08	4.8521
60.21	4.8576
60.34	4.8617
60.48	4.8670
60.61	4.8723
60.75	4.8770
60.88	4.8830
61.01	4.8881
61.14	4.8934
61.27	4.8993
61.40	4.9041
61.54	4.9101
61.67	4.9153
61.80	4.9207
61.93	4.9262
62.07	4.9313
62.20	4.9373
62.34	4.9423
62.47	4.9473
62.59	4.9526
62.73	4.9569
62.87	4.9626
63.00	4.9674
63.13	4.9734
63.26	4.9788
63.40	4.9842
63.53	4.9904
63.67	4.9950
63.80	5.0002
63.93	5.0054
64.07	5.0095
64.20	5.0157
64.33	5.0209
64.46	5.0264
64.59	5.0319
64.73	5.0368
64.87	5.0425
65.00	5.0481
65.13	5.0535
65.26	5.0592
65.40	5.0639
65.53	5.0700
65.66	5.0749
65.80	5.0800
65.93	5.0852
66.06	5.0901
66.20	5.0961
66.33	5.1003
66.46	5.1050
66.59	5.1101
66.72	5.1143
66.86	5.1201
66.99	5.1244
67.13	5.1298
67.25	5.1353
67.39	5.1399
67.53	5.1452
67.65	5.1499
67.79	5.1555
67.92	5.1606
68.05	5.1652
68.20	5.1707
68.32	5.1755
68.45	5.1806
68.59	5.1857
68.72	5.1902
68.85	5.1957
68.98	5.2000
69.12	5.2053
69.25	5.2098
69.38	5.2142
69.52	5.2202
69.65	5.2243
69.78	5.2296
69.91	5.2344
70.05	5.2388
70.18	5.2441
70.31	5.2487
70.45	5.2541
70.58	5.2594
70.72	5.2644
70.84	5.2700
70.98	5.2746
71.11	5.2801
71.25	5.2845
71.38	5.2886
71.51	5.2939
71.64	5.2976
71.78	5.3031
71.91	5.3082
72.05	5.3125
72.17	5.3177
72.31	5.3222
72.44	5.3280
72.58	5.3334
72.70	5.3383
72.84	5.3436
72.97	5.3482
73.11	5.3536
73.24	5.3582
73.38	5.3632
73.51	5.3682
73.64	5.3724
73.77	5.3777
73.91	5.3827
74.04	5.3870
74.18	5.3925
74.30	5.3971
74.44	5.4032
74.58	5.4079
74.70	5.4132
74.84	5.4185
74.98	5.4226
75.10	5.4279
75.24	5.4328
75.37	5.4377
75.50	5.4425
75.64	5.4472
75.77	5.4526
75.90	5.4573
76.03	5.4630
76.17	5.4679
76.30	5.4730
76.44	5.4787
76.57	5.4833
76.70	5.4891
76.84	5.4938
76.97	5.4976
77.10	5.5029
77.24	5.5070
77.37	5.5117
77.50	5.5163
77.63	5.5214
77.77	5.5271
77.89	5.5321
78.04	5.5377
78.17	5.5426
78.30	5.5481
78.43	5.5535
78.57	5.5583
78.70	5.5640
78.83	5.5692
78.96	5.5741
79.09	5.5787
79.23	5.5831
79.36	5.5885
79.50	5.5930
79.63	5.5980
79.76	5.6032
79.89	5.6076
80.03	5.6129
80.16	5.6178
80.30	5.6231
80.42	5.6286
80.56	5.6342
80.69	5.6402
80.82	5.6457
80.96	5.6519
81.09	5.6573
81.22	5.6628
81.35	5.6683
81.49	5.6738
81.63	5.6787
81.75	5.6834
81.89	5.6884
82.02	5.6928
82.15	5.6979
82.28	5.7017
82.42	5.7066
82.55	5.7107
82.68	5.7155
82.82	5.7196
82.95	5.7246
83.08	5.7290
83.22	5.7343
83.35	5.7390
83.48	5.7440
83.62	5.7490
83.75	5.7542
83.88	5.7597
84.01	5.7649
84.14	5.7697
84.28	5.7751
84.41	5.7804
84.54	5.7855
84.67	5.7910
84.81	5.7962
84.93	5.8025
85.07	5.8079
85.20	5.8137
85.34	5.8187
85.47	5.8240
85.60	5.8281
85.74	5.8331
85.87	5.8378
86.00	5.8436
86.13	5.8481
86.26	5.8537
86.40	5.8585
86.53	5.8640
86.66	5.8691
86.80	5.8742
86.93	5.8799
87.06	5.8851
87.20	5.8907
87.33	5.8955
87.46	5.9009
87.59	5.9053
87.73	5.9109
87.86	5.9158
87.99	5.9217
88.12	5.9265
88.25	5.9324
88.38	5.9375
88.52	5.9429
88.65	5.9475
88.79	5.9529
88.92	5.9579
89.05	5.9633
89.18	5.9678
89.32	5.9736
89.45	5.9789
89.58	5.9839
89.72	5.9894
89.85	5.9948
89.98	5.9998
90.11	6.0049
90.24	6.0102
90.38	6.0155
90.51	6.0215
90.64	6.0266
90.78	6.0324
90.91	6.0377
91.04	6.0435
91.17	6.0485
91.30	6.0542
91.44	6.0590
91.57	6.0647
91.70	6.0702
91.84	6.0764
91.97	6.0814
92.10	6.0873
92.23	6.0923
92.37	6.0977
92.50	6.1031
92.63	6.1087
92.77	6.1135
92.90	6.1186
93.03	6.1234
93.16	6.1281
93.30	6.1328
93.43	6.1374
93.57	6.1431
93.70	6.1483
93.83	6.1546
93.96	6.1601
94.09	6.1660
94.23	6.1710
94.36	6.1775
94.49	6.1826
94.63	6.1885
94.76	6.1942
94.89	6.2000
95.03	6.2052
95.16	6.2107
95.29	6.2161
95.42	6.2208
95.55	6.2268
95.69	6.2323
95.82	6.2383
95.95	6.2437
96.09	6.2493
96.22	6.2546
96.35	6.2603
96.49	6.2656
96.62	6.2711
96.75	6.2754
96.88	6.2807
97.02	6.2865
97.15	6.2925
97.28	6.2991
97.42	6.3057
97.55	6.3125
97.68	6.3190
97.81	6.3249
97.95	6.3304
98.08	6.3361
98.21	6.3413
98.34	6.3467
98.48	6.3529
98.61	6.3586
98.75	6.3637
98.88	6.3700
99.01	6.3750
99.14	6.3807
99.28	6.3860
99.41	6.3912
99.55	6.3961
99.67	6.4021
99.81	6.4072
99.94	6.4132
100.08	6.4185
100.20	6.4240
100.34	6.4303
100.47	6.4366
100.60	6.4429
100.74	6.4478
100.87	6.4532
101.00	6.4582
101.14	6.4635
101.27	6.4681
101.40	6.4737
101.53	6.4794
101.67	6.4856
101.80	6.4910
101.93	6.4972
102.07	6.5028
102.20	6.5093
102.33	6.5155
102.47	6.5218
102.60	6.5276
102.74	6.5329
102.86	6.5383
103.00	6.5439
103.13	6.5501
103.27	6.5554
103.40	6.5612
103.53	6.5668
103.67	6.5732
103.80	6.5788
103.93	6.5847
104.07	6.5902
104.20	6.5962
104.33	6.6017
104.46	6.6073
104.60	6.6131
104.73	6.6185
104.87	6.6244
104.99	6.6307
105.13	6.6370
105.25	6.6431
105.39	6.6489
105.53	6.6546
105.66	6.6606
105.79	6.6659
105.93	6.6716
106.06	6.6771
106.19	6.6830
106.33	6.6885
106.45	6.6946
106.59	6.7003
106.72	6.7068
106.85	6.7123
106.99	6.7181
107.12	6.7242
107.25	6.7292
107.38	6.7347
107.52	6.7399
107.65	6.7455
107.78	6.7509
107.92	6.7568
108.05	6.7619
108.18	6.7675
108.32	6.7729
108.45	6.7793
108.58	6.7849
108.71	6.7905
108.85	6.7963
108.98	6.8016
109.11	6.8066
109.25	6.8125
109.38	6.8176
109.51	6.8233
109.65	6.8293
109.78	6.8347
109.91	6.8404
110.05	6.8448
110.18	6.8502
110.31	6.8550
110.45	6.8602
110.58	6.8653
110.71	6.8711
110.84	6.8765
110.98	6.8826
111.11	6.8891
111.24	6.8948
111.38	6.9004
111.51	6.9066
111.64	6.9131
111.78	6.9192
111.91	6.9253
112.05	6.9313
112.18	6.9375
112.31	6.9429
112.44	6.9495
112.58	6.9557
112.71	6.9619
112.84	6.9682
112.98	6.9751
113.11	6.9818
113.24	6.9883
113.38	6.9947
113.50	7.0009
113.64	7.0080
113.77	7.0135
113.91	7.0196
114.04	7.0254
114.17	7.0315
114.30	7.0377
114.43	7.0438
114.57	7.0505
114.70	7.0571
114.84	7.0633
114.97	7.0697
115.10	7.0759
115.23	7.0823
115.35	7.0891
115.50	7.0957
115.64	7.1025
115.76	7.1096
115.90	7.1165
116.03	7.1227
116.16	7.1293
116.30	7.1355
116.42	7.1422
116.57	7.1485
116.70	7.1551
116.83	7.1620
116.96	7.1681
117.09	7.1750
117.23	7.1821
117.36	7.1888
117.50	7.1958
117.63	7.2031
117.76	7.2098
117.89	7.2173
118.03	7.2239
118.15	7.2306
118.30	7.2371
118.43	7.2438
118.56	7.2504
118.69	7.2572
118.83	7.2635
118.96	7.2714
119.09	7.2789
119.23	7.2861
119.36	7.2932
119.49	7.2994
119.62	7.3066
119.76	7.3132
119.89	7.3209
120.03	7.3281
120.16	7.3348
120.29	7.3416
120.42	7.3482
120.55	7.3554
120.69	7.3622
120.83	7.3699
120.96	7.3767
121.09	7.3846
121.22	7.3915
121.35	7.3986
121.49	7.4055
121.62	7.4128
121.75	7.4198
121.89	7.4268
122.02	7.4336
122.15	7.4411
122.28	7.4480
122.42	7.4557
122.55	7.4637
122.68	7.4707
122.82	7.4782
122.95	7.4851
123.09	7.4925
123.22	7.4999
123.35	7.5075
123.48	7.5153
123.62	7.5228
123.75	7.5297
123.88	7.5367
124.02	7.5443
124.15	7.5513
124.28	7.5591
124.41	7.5657
124.55	7.5737
124.68	7.5803
124.82	7.5885
124.95	7.5956
125.08	7.6038
125.21	7.6114
125.35	7.6192
125.48	7.6270
125.60	7.6348
125.75	7.6423
125.88	7.6498
126.01	7.6579
126.14	7.6651
126.28	7.6731
126.41	7.6802
126.54	7.6887
126.68	7.6960
126.81	7.7041
126.94	7.7118
127.08	7.7197
127.20	7.7275
127.34	7.7345
127.47	7.7426
127.60	7.7502
127.74	7.7581
127.87	7.7657
128.00	7.7739
128.14	7.7812
128.27	7.7896
128.40	7.7976
128.54	7.8063
128.67	7.8146
128.80	7.8237
128.94	7.8323
129.07	7.8400
129.20	7.8475
129.34	7.8543
129.47	7.8622
129.60	7.8698
129.73	7.8782
129.88	7.8856
130.00	7.8939
130.14	7.9016
130.27	7.9101
130.40	7.9190
130.54	7.9278
130.67	7.9359
130.80	7.9445
130.94	7.9533
131.07	7.9612
131.20	7.9699
131.34	7.9778
131.47	7.9862
131.60	7.9950
131.73	8.0040
131.87	8.0129
132.00	8.0214
132.14	8.0302
132.27	8.0387
132.40	8.0476
132.53	8.0563
132.67	8.0651
132.80	8.0730
132.93	8.0817
133.07	8.0902
133.20	8.0989
133.33	8.1076
133.47	8.1164
133.60	8.1251
133.73	8.1336
133.86	8.1422
134.00	8.1505
134.14	8.1601
134.26	8.1697
134.40	8.1795
134.53	8.1885
134.66	8.1974
134.80	8.2063
134.93	8.2147
135.06	8.2233
135.19	8.2326
135.33	8.2422
135.46	8.2514
135.59	8.2602
135.73	8.2684
135.86	8.2768
135.99	8.2847
136.13	8.2940
136.25	8.3040
136.39	8.3139
136.53	8.3234
136.65	8.3330
136.79	8.3428
136.93	8.3517
137.06	8.3615
137.19	8.3704
137.33	8.3798
137.46	8.3892
137.60	8.3987
137.73	8.4076
137.86	8.4165
137.99	8.4257
138.12	8.4349
138.26	8.4446
138.39	8.4542
138.53	8.4647
138.66	8.4747
138.79	8.4852
138.93	8.4952
139.06	8.5050
139.19	8.5152
139.33	8.5247
139.46	8.5346
139.59	8.5446
139.72	8.5548
139.86	8.5642
139.99	8.5741
140.13	8.5836
140.25	8.5936
140.39	8.6037
140.53	8.6134
140.66	8.6237
140.80	8.6334
140.93	8.6439
141.05	8.6543
141.19	8.6652
141.32	8.6750
141.46	8.6859
141.59	8.6966
141.72	8.7077
141.86	8.7188
141.99	8.7294
142.13	8.7400
142.26	8.7506
142.39	8.7608
142.53	8.7709
142.66	8.7816
142.79	8.7927
142.92	8.8042
143.06	8.8166
143.19	8.8290
143.33	8.8405
143.45	8.8519
143.59	8.8643
143.72	8.8762
143.85	8.8880
143.99	8.8994
144.12	8.9112
144.25	8.9233
144.39	8.9354
144.53	8.9477
144.65	8.9606
144.79	8.9731
144.92	8.9856
145.05	8.9990
145.18	9.0119
145.32	9.0242
145.45	9.0365
145.58	9.0490
145.72	9.0622
145.85	9.0752
145.98	9.0886
146.11	9.1019
146.25	9.1146
146.38	9.1273
146.51	9.1407
146.65	9.1530
146.78	9.1656
146.91	9.1798
147.05	9.1933
147.18	9.2073
147.31	9.2213
147.44	9.2341
147.58	9.2477
147.71	9.2604
147.85	9.2735
147.97	9.2866
148.11	9.3000
148.24	9.3128
148.37	9.3258
148.51	9.3392
148.64	9.3514
148.78	9.3642
148.90	9.3758
149.04	9.3876
149.18	9.3990
149.30	9.4108
149.44	9.4220
149.57	9.4336
149.69	9.4451
149.84	9.4569
149.97	9.4686
150.10	9.4809
150.23	9.4933
150.36	9.5044
150.50	9.5161
150.63	9.5264
150.77	9.5376
150.90	9.5496
151.03	9.5614
151.17	9.5734
151.30	9.5847
151.43	9.5967
151.56	9.6084
151.69	9.6212
151.83	9.6342
151.96	9.6478
152.09	9.6612
152.22	9.6760
152.36	9.6913
152.49	9.7059
152.63	9.7216
152.75	9.7379
152.89	9.7535
153.03	9.7702
153.15	9.7873
153.29	9.8043
153.42	9.8224
153.55	9.8403
153.68	9.8582
153.82	9.8773
153.95	9.8958
154.09	9.9142
154.22	9.9331
154.35	9.9521
154.48	9.9708
154.62	9.9900
154.75	10.0087
154.88	10.0275
155.01	10.0466
155.15	10.0666
155.28	10.0861
155.41	10.1057
155.54	10.1261
155.68	10.1466
155.81	10.1675
155.94	10.1888
156.08	10.2107
156.21	10.2328
156.35	10.2545
156.47	10.2768
156.61	10.2995
156.74	10.3230
156.87	10.3465
157.00	10.3699
157.14	10.3922
157.27	10.4146
157.40	10.4372
157.54	10.4607
157.67	10.4855
157.80	10.5114
157.94	10.5383
158.07	10.5659
158.20	10.5946
158.34	10.6238
158.47	10.6536
158.60	10.6838
158.73	10.7144
158.87	10.7458
159.00	10.7778
159.13	10.8099
159.26	10.8428
159.40	10.8768
159.53	10.9113
159.66	10.9475
159.80	10.9847
159.93	11.0223
160.06	11.0612
160.19	11.1017
160.33	11.1426
160.46	11.1851
160.60	11.2281
160.72	11.2713
160.86	11.3154
161.00	11.3603
161.13	11.4060
161.26	11.4529
161.39	11.5007
161.53	11.5495
161.66	11.5992
161.79	11.6490
161.93	11.6994
162.05	11.7504
162.19	11.8002
162.33	11.8500
162.45	11.8992
162.59	11.9474
162.72	11.9961
162.85	12.0448
162.98	12.0928
163.12	12.1403
163.25	12.1870
163.38	12.2329
163.52	12.2786
163.65	12.3248
163.78	12.3704
163.92	12.4161
164.05	12.4634
164.18	12.5094
164.32	12.5536
164.44	12.5966
164.58	12.6383
164.71	12.6787
164.85	12.7195
164.98	12.7602
165.11	12.8014
165.24	12.8419
165.38	12.8818
165.51	12.9208
165.65	12.9583
165.78	12.9946
165.91	13.0295
166.05	13.0633
166.18	13.0946
166.31	13.1244
166.44	13.1515
166.58	13.1762
166.71	13.1983
166.84	13.2185
166.97	13.2367
167.10	13.2530
167.24	13.2665
167.38	13.2776
167.50	13.2862
167.64	13.2913
167.77	13.2919
167.91	13.2890
168.04	13.2809
168.17	13.2675
168.30	13.2510
168.44	13.2317
168.58	13.2090
168.71	13.1819
168.84	13.1501
168.97	13.1141
169.10	13.0724
169.24	13.0250
169.37	12.9707
169.51	12.9094
169.64	12.8408
169.77	12.7643
169.90	12.6796
170.04	12.5864
170.18	12.4843
170.30	12.3735
170.44	12.2554
170.58	12.1299
170.70	11.9984
170.84	11.8625
170.97	11.7229
171.10	11.5825
171.24	11.4440
171.37	11.3091
171.50	11.1818
171.64	11.0627
171.77	10.9535
171.90	10.8550
172.03	10.7675
172.17	10.6905
172.30	10.6252
172.43	10.5699
172.57	10.5231
172.70	10.4850
172.83	10.4532
172.97	10.4278
173.10	10.4083
173.23	10.3936
173.36	10.3834
173.50	10.3767
173.63	10.3727
173.77	10.3701
173.90	10.3709
174.03	10.3723
174.16	10.3717
174.30	10.3698
174.43	10.3681
174.56	10.3688
174.69	10.3725
174.83	10.3776
174.96	10.3853
175.09	10.3940
175.23	10.4036
175.36	10.4137
175.50	10.4244
175.63	10.4352
175.77	10.4451
175.90	10.4551
176.03	10.4658
176.16	10.4765
176.29	10.4875
176.43	10.4985
176.56	10.5087
176.69	10.5190
176.83	10.5296
176.96	10.5399
177.09	10.5503
177.22	10.5609
177.36	10.5708
177.49	10.5810
177.63	10.5916
177.76	10.6019
177.89	10.6109
178.02	10.6215
178.15	10.6313
178.29	10.6416
178.42	10.6517
178.55	10.6616
178.69	10.6718
178.82	10.6823
178.95	10.6925
179.09	10.7022
179.22	10.7117
179.35	10.7204
179.49	10.7294
179.62	10.7391
179.75	10.7489
179.88	10.7593
180.02	10.7696
180.15	10.7794
180.28	10.7893
180.42	10.7993
180.55	10.8094
180.68	10.8187
180.82	10.8275
180.95	10.8365
181.08	10.8455
181.22	10.8545
181.35	10.8641
181.48	10.8735
181.62	10.8838
181.75	10.8941
181.88	10.9043
182.01	10.9144
182.15	10.9245
182.28	10.9340
182.41	10.9436
182.54	10.9532
182.68	10.9628
182.81	10.9723
182.94	10.9816
183.08	10.9919
183.20	11.0014
183.34	11.0108
183.47	11.0200
183.61	11.0300
183.75	11.0403
183.88	11.0500
184.00	11.0599
184.14	11.0700
184.27	11.0793
184.41	11.0890
184.54	11.0988
184.67	11.1087
184.80	11.1184
184.94	11.1298
185.07	11.1398
185.20	11.1502
185.34	11.1599
185.47	11.1695
185.60	11.1793
185.74	11.1888
185.87	11.1982
186.00	11.2072
186.14	11.2168
186.27	11.2268
186.41	11.2360
186.54	11.2465
186.67	11.2562
186.80	11.2662
186.93	11.2770
187.07	11.2874
187.20	11.2977
187.33	11.3082
187.47	11.3173
187.60	11.3262
187.73	11.3351
187.87	11.3441
188.00	11.3526
188.13	11.3630
188.27	11.3732
188.40	11.3833
188.54	11.3934
188.67	11.4037
188.80	11.4134
188.94	11.4235
189.06	11.4341
189.20	11.4443
189.33	11.4545
189.47	11.4652
189.60	11.4753
189.74	11.4857
189.87	11.4965
190.00	11.5057
190.13	11.5154
190.27	11.5257
190.40	11.5358
190.54	11.5460
190.67	11.5566
190.80	11.5672
190.93	11.5779
191.07	11.5897
191.19	11.6004
191.33	11.6109
191.46	11.6212
191.60	11.6307
191.73	11.6404
191.87	11.6501
192.00	11.6594
192.13	11.6685
192.26	11.6784
192.40	11.6881
192.53	11.6985
192.67	11.7096
192.80	11.7226
192.93	11.7282
193.06	11.7224
193.19	11.7271
193.33	11.7401
193.46	11.7548
193.60	11.7701
193.73	11.7832
193.86	11.7952
193.99	11.8076
194.13	11.8182
194.26	11.8285
194.39	11.8387
194.53	11.8489
194.66	11.8592
194.80	11.8701
194.93	11.8803
195.07	11.8908
195.19	11.9014
195.33	11.9116
195.46	11.9224
195.60	11.9323
195.73	11.9423
195.86	11.9519
196.00	11.9616
196.13	11.9724
196.26	11.9830
196.40	11.9946
196.53	12.0053
196.66	12.0157
196.79	12.0257
196.93	12.0360
197.06	12.0461
197.19	12.0562
197.33	12.0667
197.46	12.0770
197.60	12.0873
197.73	12.0975
197.86	12.1076
198.00	12.1181
198.13	12.1293
198.26	12.1399
198.39	12.1499
198.53	12.1595
198.65	12.1687
198.79	12.1786
198.93	12.1891
199.06	12.2004
199.19	12.2109
199.33	12.2217
199.46	12.2314
199.59	12.2409
199.72	12.2513
199.86	12.2612
199.99	12.2707