File: 论文/¬€Œƒ/¬€Œƒ/dsc/15%5mm.txt
Filename:	D:\TGAdata\„∆√ŒœÈ\20150506\15%5mm.pdid

Temperature (°„C)	Heat Flow Endo Up (mW)
10.67	1.4901
10.68	1.2362
10.72	0.9881
10.81	0.8759
10.93	0.8139
11.04	0.7959
11.16	0.8346
11.29	0.9322
11.42	1.0760
11.55	1.2486
11.68	1.4313
11.81	1.6102
11.94	1.7774
12.07	1.9290
12.21	2.0618
12.34	2.1797
12.48	2.2783
12.60	2.3623
12.74	2.4314
12.87	2.4895
13.00	2.5386
13.14	2.5782
13.27	2.6110
13.40	2.6378
13.53	2.6598
13.67	2.6797
13.80	2.6963
13.93	2.7100
14.08	2.7215
14.20	2.7309
14.34	2.7405
14.47	2.7487
14.60	2.7557
14.73	2.7616
14.87	2.7670
15.00	2.7734
15.14	2.7793
15.27	2.7837
15.40	2.7880
15.53	2.7921
15.67	2.7960
15.80	2.8016
15.94	2.8058
16.07	2.8098
16.20	2.8137
16.34	2.8179
16.47	2.8226
16.61	2.8271
16.73	2.8307
16.88	2.8347
17.01	2.8388
17.14	2.8444
17.27	2.8482
17.40	2.8512
17.54	2.8555
17.67	2.8601
17.80	2.8637
17.94	2.8690
18.07	2.8735
18.20	2.8771
18.33	2.8820
18.47	2.8855
18.61	2.8886
18.74	2.8931
18.87	2.8960
19.00	2.8992
19.13	2.9037
19.27	2.9061
19.40	2.9105
19.53	2.9143
19.67	2.9164
19.80	2.9205
19.94	2.9239
20.07	2.9263
20.20	2.9311
20.33	2.9339
20.47	2.9369
20.59	2.9414
20.73	2.9448
20.87	2.9497
20.99	2.9545
21.13	2.9575
21.26	2.9622
21.40	2.9657
21.53	2.9692
21.66	2.9733
21.79	2.9765
21.93	2.9797
22.06	2.9847
22.20	2.9881
22.32	2.9921
22.45	2.9964
22.58	3.0000
22.73	3.0047
22.86	3.0091
22.99	3.0121
23.13	3.0167
23.25	3.0203
23.39	3.0243
23.52	3.0296
23.65	3.0323
23.78	3.0366
23.92	3.0406
24.05	3.0443
24.18	3.0487
24.31	3.0527
24.45	3.0556
24.58	3.0609
24.72	3.0647
24.85	3.0694
24.98	3.0738
25.12	3.0764
25.25	3.0809
25.38	3.0849
25.51	3.0883
25.65	3.0932
25.78	3.0963
25.91	3.0996
26.05	3.1048
26.18	3.1083
26.31	3.1126
26.45	3.1168
26.58	3.1209
26.70	3.1261
26.84	3.1300
26.98	3.1336
27.11	3.1382
27.24	3.1416
27.37	3.1459
27.51	3.1498
27.64	3.1524
27.78	3.1566
27.91	3.1604
28.04	3.1636
28.17	3.1689
28.31	3.1729
28.44	3.1771
28.57	3.1830
28.71	3.1874
28.84	3.1924
28.97	3.1969
29.11	3.2001
29.24	3.2054
29.38	3.2093
29.50	3.2131
29.64	3.2185
29.77	3.2210
29.90	3.2256
30.04	3.2305
30.18	3.2341
30.31	3.2390
30.44	3.2428
30.57	3.2461
30.70	3.2511
30.84	3.2544
30.97	3.2588
31.10	3.2630
31.24	3.2667
31.37	3.2707
31.50	3.2748
31.63	3.2782
31.77	3.2830
31.90	3.2864
32.04	3.2909
32.17	3.2958
32.30	3.2997
32.44	3.3045
32.57	3.3090
32.70	3.3130
32.83	3.3185
32.97	3.3215
33.09	3.3261
33.23	3.3307
33.37	3.3341
33.50	3.3386
33.63	3.3422
33.76	3.3450
33.89	3.3502
34.03	3.3547
34.17	3.3590
34.30	3.3644
34.43	3.3678
34.56	3.3730
34.69	3.3769
34.83	3.3811
34.96	3.3862
35.09	3.3897
35.23	3.3942
35.36	3.3989
35.49	3.4025
35.63	3.4077
35.76	3.4114
35.89	3.4154
36.02	3.4207
36.16	3.4245
36.29	3.4288
36.42	3.4333
36.56	3.4371
36.69	3.4429
36.83	3.4474
36.96	3.4515
37.09	3.4564
37.23	3.4601
37.36	3.4648
37.49	3.4697
37.63	3.4734
37.76	3.4789
37.89	3.4830
38.02	3.4872
38.16	3.4924
38.29	3.4958
38.42	3.5004
38.56	3.5047
38.69	3.5086
38.82	3.5135
38.95	3.5178
39.09	3.5224
39.22	3.5272
39.36	3.5308
39.48	3.5354
39.63	3.5400
39.75	3.5444
39.89	3.5502
40.02	3.5548
40.15	3.5596
40.29	3.5647
40.42	3.5686
40.56	3.5738
40.69	3.5781
40.82	3.5826
40.95	3.5878
41.08	3.5915
41.22	3.5969
41.35	3.6016
41.49	3.6061
41.62	3.6115
41.75	3.6153
41.89	3.6204
42.02	3.6258
42.15	3.6297
42.28	3.6355
42.42	3.6395
42.55	3.6445
42.68	3.6493
42.82	3.6541
42.95	3.6597
43.08	3.6645
43.22	3.6688
43.35	3.6742
43.48	3.6787
43.61	3.6841
43.74	3.6892
43.88	3.6938
44.01	3.6995
44.15	3.7040
44.28	3.7084
44.41	3.7132
44.54	3.7173
44.68	3.7227
44.81	3.7277
44.95	3.7315
45.08	3.7372
45.21	3.7419
45.34	3.7470
45.48	3.7520
45.61	3.7555
45.74	3.7608
45.88	3.7649
46.01	3.7697
46.14	3.7751
46.28	3.7792
46.41	3.7846
46.55	3.7893
46.67	3.7941
46.81	3.7990
46.94	3.8030
47.08	3.8082
47.21	3.8133
47.34	3.8175
47.48	3.8236
47.61	3.8280
47.74	3.8331
47.87	3.8386
48.01	3.8433
48.14	3.8488
48.27	3.8535
48.41	3.8586
48.55	3.8637
48.68	3.8677
48.81	3.8730
48.95	3.8778
49.07	3.8820
49.21	3.8874
49.34	3.8916
49.47	3.8969
49.61	3.9016
49.74	3.9052
49.87	3.9112
50.00	3.9156
50.14	3.9208
50.27	3.9262
50.41	3.9304
50.54	3.9360
50.67	3.9407
50.80	3.9453
50.94	3.9509
51.07	3.9551
51.20	3.9603
51.34	3.9657
51.47	3.9698
51.60	3.9748
51.74	3.9790
51.88	3.9835
52.01	3.9884
52.14	3.9923
52.27	3.9976
52.40	4.0017
52.53	4.0067
52.67	4.0115
52.80	4.0151
52.94	4.0206
53.07	4.0248
53.20	4.0297
53.33	4.0347
53.47	4.0388
53.60	4.0442
53.73	4.0488
53.87	4.0528
54.00	4.0583
54.13	4.0619
54.27	4.0670
54.40	4.0714
54.53	4.0757
54.67	4.0810
54.80	4.0848
54.93	4.0900
55.07	4.0937
55.20	4.0977
55.34	4.1030
55.48	4.1077
55.59	4.1123
55.73	4.1164
55.87	4.1197
56.00	4.1251
56.13	4.1289
56.26	4.1337
56.40	4.1383
56.53	4.1423
56.67	4.1473
56.80	4.1519
56.93	4.1561
57.06	4.1612
57.20	4.1659
57.33	4.1711
57.47	4.1753
57.59	4.1799
57.73	4.1849
57.86	4.1889
58.00	4.1943
58.13	4.1990
58.26	4.2030
58.39	4.2072
58.53	4.2106
58.67	4.2151
58.79	4.2193
58.93	4.2233
59.06	4.2284
59.20	4.2325
59.33	4.2379
59.46	4.2428
59.59	4.2480
59.73	4.2534
59.86	4.2578
60.00	4.2626
60.13	4.2664
60.26	4.2703
60.39	4.2753
60.53	4.2792
60.66	4.2840
60.79	4.2883
60.93	4.2924
61.06	4.2985
61.19	4.3025
61.32	4.3075
61.46	4.3123
61.59	4.3165
61.73	4.3222
61.86	4.3264
61.99	4.3316
62.12	4.3365
62.25	4.3405
62.39	4.3451
62.52	4.3493
62.65	4.3541
62.80	4.3590
62.92	4.3634
63.05	4.3688
63.19	4.3733
63.32	4.3785
63.46	4.3834
63.59	4.3876
63.73	4.3925
63.86	4.3963
63.99	4.4018
64.12	4.4062
64.26	4.4099
64.39	4.4147
64.53	4.4187
64.66	4.4235
64.79	4.4287
64.92	4.4336
65.06	4.4394
65.19	4.4437
65.33	4.4492
65.45	4.4541
65.59	4.4583
65.72	4.4650
65.86	4.4697
65.99	4.4748
66.13	4.4798
66.26	4.4848
66.39	4.4905
66.52	4.4944
66.66	4.4985
66.79	4.5037
66.93	4.5078
67.05	4.5136
67.19	4.5180
67.32	4.5228
67.46	4.5276
67.59	4.5318
67.72	4.5376
67.85	4.5421
67.99	4.5473
68.12	4.5529
68.26	4.5570
68.39	4.5627
68.53	4.5671
68.66	4.5720
68.79	4.5772
68.92	4.5812
69.06	4.5867
69.18	4.5910
69.32	4.5968
69.45	4.6018
69.59	4.6070
69.72	4.6132
69.85	4.6177
69.99	4.6226
70.12	4.6276
70.25	4.6321
70.39	4.6383
70.52	4.6434
70.65	4.6489
70.79	4.6542
70.92	4.6588
71.05	4.6643
71.18	4.6683
71.32	4.6735
71.45	4.6780
71.59	4.6823
71.72	4.6881
71.85	4.6923
71.98	4.6978
72.12	4.7030
72.25	4.7073
72.39	4.7128
72.52	4.7172
72.65	4.7226
72.79	4.7276
72.92	4.7329
73.05	4.7383
73.19	4.7424
73.33	4.7483
73.45	4.7530
73.58	4.7579
73.72	4.7633
73.86	4.7681
73.99	4.7739
74.12	4.7793
74.25	4.7852
74.39	4.7910
74.52	4.7955
74.65	4.8018
74.79	4.8064
74.92	4.8121
75.05	4.8181
75.18	4.8224
75.33	4.8279
75.45	4.8329
75.59	4.8384
75.73	4.8439
75.85	4.8484
75.99	4.8548
76.13	4.8597
76.26	4.8656
76.39	4.8708
76.52	4.8757
76.66	4.8821
76.79	4.8876
76.92	4.8937
77.05	4.8989
77.19	4.9038
77.33	4.9095
77.46	4.9142
77.59	4.9191
77.73	4.9237
77.86	4.9283
77.99	4.9333
78.13	4.9384
78.26	4.9451
78.39	4.9504
78.53	4.9560
78.65	4.9623
78.79	4.9669
78.92	4.9730
79.05	4.9777
79.19	4.9833
79.32	4.9894
79.46	4.9944
79.59	5.0008
79.73	5.0060
79.86	5.0115
80.00	5.0173
80.12	5.0219
80.25	5.0278
80.39	5.0325
80.53	5.0384
80.65	5.0435
80.79	5.0498
80.92	5.0559
81.05	5.0615
81.18	5.0676
81.32	5.0739
81.45	5.0800
81.59	5.0867
81.72	5.0929
81.85	5.0983
81.98	5.1036
82.12	5.1100
82.25	5.1145
82.38	5.1201
82.52	5.1245
82.65	5.1300
82.78	5.1347
82.92	5.1404
83.05	5.1452
83.18	5.1508
83.31	5.1560
83.45	5.1618
83.58	5.1675
83.72	5.1726
83.84	5.1782
83.98	5.1838
84.11	5.1890
84.25	5.1940
84.38	5.2000
84.51	5.2057
84.64	5.2118
84.78	5.2177
84.91	5.2237
85.04	5.2293
85.18	5.2357
85.31	5.2416
85.45	5.2481
85.58	5.2540
85.71	5.2605
85.84	5.2665
85.98	5.2725
86.12	5.2785
86.24	5.2847
86.38	5.2896
86.51	5.2953
86.64	5.3008
86.77	5.3071
86.91	5.3127
87.04	5.3189
87.17	5.3247
87.30	5.3310
87.44	5.3372
87.57	5.3432
87.70	5.3494
87.84	5.3550
87.97	5.3611
88.10	5.3665
88.23	5.3723
88.37	5.3779
88.50	5.3840
88.64	5.3901
88.77	5.3965
88.89	5.4021
89.03	5.4087
89.16	5.4145
89.30	5.4209
89.43	5.4268
89.56	5.4328
89.70	5.4379
89.83	5.4435
89.96	5.4499
90.09	5.4557
90.23	5.4622
90.36	5.4681
90.49	5.4743
90.63	5.4800
90.76	5.4870
90.89	5.4930
91.03	5.4996
91.15	5.5055
91.29	5.5120
91.42	5.5181
91.55	5.5254
91.69	5.5312
91.82	5.5382
91.96	5.5446
92.09	5.5514
92.22	5.5571
92.35	5.5630
92.49	5.5694
92.62	5.5749
92.76	5.5818
92.89	5.5881
93.02	5.5947
93.15	5.6010
93.29	5.6065
93.42	5.6124
93.55	5.6183
93.68	5.6243
93.82	5.6307
93.95	5.6364
94.09	5.6440
94.21	5.6506
94.35	5.6575
94.48	5.6641
94.62	5.6709
94.75	5.6769
94.88	5.6840
95.02	5.6908
95.15	5.6975
95.28	5.7034
95.42	5.7102
95.55	5.7163
95.68	5.7226
95.82	5.7286
95.95	5.7346
96.08	5.7413
96.21	5.7484
96.34	5.7549
96.48	5.7614
96.61	5.7682
96.75	5.7740
96.88	5.7812
97.01	5.7866
97.14	5.7932
97.28	5.7992
97.41	5.8059
97.55	5.8125
97.68	5.8198
97.81	5.8265
97.95	5.8339
98.08	5.8408
98.21	5.8477
98.34	5.8545
98.48	5.8619
98.61	5.8686
98.74	5.8755
98.88	5.8823
99.01	5.8887
99.14	5.8960
99.28	5.9018
99.40	5.9088
99.55	5.9150
99.68	5.9222
99.81	5.9286
99.94	5.9364
100.08	5.9431
100.21	5.9503
100.35	5.9568
100.48	5.9637
100.61	5.9701
100.74	5.9770
100.88	5.9839
101.01	5.9906
101.14	5.9978
101.28	6.0047
101.40	6.0118
101.54	6.0183
101.68	6.0253
101.81	6.0316
101.94	6.0388
102.07	6.0456
102.21	6.0522
102.35	6.0591
102.47	6.0664
102.61	6.0735
102.74	6.0799
102.88	6.0873
103.01	6.0948
103.14	6.1017
103.27	6.1082
103.40	6.1150
103.54	6.1216
103.68	6.1280
103.80	6.1349
103.93	6.1425
104.07	6.1493
104.20	6.1567
104.34	6.1630
104.47	6.1696
104.60	6.1768
104.74	6.1842
104.87	6.1907
105.00	6.1977
105.14	6.2050
105.27	6.2122
105.40	6.2196
105.54	6.2267
105.67	6.2343
105.80	6.2412
105.93	6.2483
106.07	6.2547
106.20	6.2624
106.33	6.2685
106.47	6.2761
106.60	6.2831
106.73	6.2910
106.87	6.2988
107.00	6.3068
107.13	6.3144
107.27	6.3220
107.40	6.3284
107.53	6.3346
107.66	6.3408
107.80	6.3468
107.93	6.3534
108.06	6.3604
108.20	6.3680
108.33	6.3744
108.46	6.3821
108.60	6.3892
108.73	6.3968
108.88	6.4049
109.00	6.4127
109.13	6.4205
109.26	6.4278
109.40	6.4351
109.53	6.4424
109.66	6.4500
109.80	6.4569
109.93	6.4646
110.06	6.4719
110.20	6.4795
110.33	6.4869
110.47	6.4950
110.60	6.5020
110.73	6.5091
110.86	6.5160
111.00	6.5233
111.13	6.5307
111.27	6.5388
111.40	6.5465
111.53	6.5547
111.67	6.5622
111.80	6.5693
111.93	6.5765
112.07	6.5833
112.20	6.5913
112.33	6.5993
112.46	6.6076
112.60	6.6154
112.73	6.6237
112.87	6.6315
113.00	6.6399
113.13	6.6473
113.27	6.6545
113.39	6.6617
113.53	6.6682
113.66	6.6763
113.80	6.6835
113.93	6.6914
114.06	6.6993
114.19	6.7077
114.33	6.7147
114.46	6.7230
114.59	6.7305
114.73	6.7384
114.86	6.7458
115.00	6.7532
115.13	6.7607
115.26	6.7692
115.40	6.7775
115.53	6.7856
115.66	6.7941
115.80	6.8017
115.93	6.8100
116.06	6.8181
116.19	6.8261
116.33	6.8340
116.46	6.8421
116.59	6.8497
116.73	6.8576
116.86	6.8652
117.00	6.8738
117.13	6.8814
117.26	6.8896
117.39	6.8974
117.52	6.9059
117.65	6.9142
117.79	6.9220
117.93	6.9305
118.05	6.9383
118.19	6.9463
118.33	6.9536
118.46	6.9611
118.59	6.9691
118.72	6.9772
118.86	6.9853
118.99	6.9939
119.13	7.0019
119.26	7.0102
119.39	7.0189
119.53	7.0277
119.65	7.0362
119.79	7.0439
119.93	7.0527
120.06	7.0609
120.19	7.0700
120.32	7.0784
120.46	7.0867
120.59	7.0952
120.73	7.1032
120.86	7.1115
120.99	7.1201
121.12	7.1289
121.26	7.1370
121.39	7.1462
121.53	7.1546
121.66	7.1629
121.79	7.1706
121.92	7.1797
122.06	7.1887
122.19	7.1972
122.32	7.2062
122.46	7.2144
122.59	7.2227
122.72	7.2303
122.86	7.2376
122.99	7.2460
123.12	7.2543
123.26	7.2616
123.40	7.2679
123.53	7.2747
123.66	7.2839
123.79	7.2938
123.93	7.3038
124.06	7.3133
124.19	7.3231
124.33	7.3323
124.46	7.3416
124.58	7.3506
124.72	7.3595
124.85	7.3687
124.99	7.3777
125.12	7.3873
125.25	7.3959
125.39	7.4049
125.52	7.4135
125.65	7.4228
125.79	7.4321
125.92	7.4419
126.05	7.4509
126.19	7.4597
126.32	7.4684
126.45	7.4769
126.58	7.4856
126.72	7.4939
126.85	7.5030
126.98	7.5118
127.12	7.5218
127.25	7.5314
127.38	7.5403
127.51	7.5491
127.65	7.5585
127.78	7.5675
127.92	7.5765
128.05	7.5854
128.19	7.5938
128.32	7.6029
128.45	7.6114
128.58	7.6208
128.72	7.6300
128.85	7.6396
128.98	7.6491
129.12	7.6591
129.25	7.6682
129.39	7.6771
129.52	7.6864
129.65	7.6949
129.78	7.7045
129.92	7.7131
130.05	7.7227
130.19	7.7321
130.32	7.7419
130.45	7.7512
130.58	7.7610
130.72	7.7703
130.85	7.7804
130.98	7.7901
131.12	7.8001
131.25	7.8104
131.38	7.8197
131.52	7.8301
131.66	7.8399
131.78	7.8500
131.92	7.8590
132.05	7.8693
132.18	7.8792
132.32	7.8889
132.45	7.8986
132.58	7.9081
132.72	7.9183
132.85	7.9277
132.98	7.9379
133.12	7.9470
133.25	7.9572
133.39	7.9668
133.52	7.9770
133.65	7.9864
133.78	7.9959
133.92	8.0054
134.05	8.0153
134.19	8.0254
134.32	8.0351
134.45	8.0450
134.59	8.0552
134.72	8.0650
134.85	8.0748
134.98	8.0850
135.12	8.0946
135.25	8.1050
135.39	8.1155
135.52	8.1262
135.65	8.1366
135.78	8.1473
135.92	8.1575
136.05	8.1674
136.18	8.1778
136.32	8.1881
136.45	8.1986
136.58	8.2095
136.71	8.2205
136.85	8.2311
136.98	8.2412
137.12	8.2519
137.25	8.2622
137.38	8.2728
137.52	8.2835
137.65	8.2946
137.78	8.3053
137.92	8.3161
138.05	8.3271
138.19	8.3377
138.32	8.3485
138.45	8.3591
138.58	8.3698
138.72	8.3802
138.85	8.3913
138.98	8.4025
139.12	8.4132
139.25	8.4242
139.39	8.4358
139.52	8.4474
139.65	8.4590
139.79	8.4703
139.92	8.4820
140.05	8.4937
140.19	8.5047
140.32	8.5160
140.45	8.5262
140.59	8.5352
140.72	8.5443
140.86	8.5558
140.99	8.5679
141.12	8.5806
141.25	8.5939
141.39	8.6064
141.52	8.6200
141.66	8.6327
141.79	8.6466
141.92	8.6596
142.05	8.6725
142.19	8.6861
142.32	8.6998
142.45	8.7136
142.59	8.7276
142.72	8.7418
142.86	8.7559
142.99	8.7705
143.13	8.7847
143.25	8.7998
143.39	8.8150
143.53	8.8309
143.65	8.8461
143.79	8.8611
143.93	8.8772
144.05	8.8929
144.19	8.9092
144.32	8.9248
144.45	8.9405
144.59	8.9563
144.72	8.9714
144.86	8.9868
144.99	9.0023
145.12	9.0173
145.26	9.0329
145.39	9.0478
145.52	9.0617
145.65	9.0752
145.79	9.0880
145.92	9.0995
146.05	9.1106
146.18	9.1211
146.32	9.1309
146.45	9.1401
146.59	9.1489
146.72	9.1570
146.85	9.1644
146.98	9.1704
147.12	9.1771
147.25	9.1834
147.38	9.1895
147.51	9.1955
147.65	9.2011
147.78	9.2064
147.91	9.2118
148.05	9.2175
148.18	9.2238
148.31	9.2305
148.45	9.2378
148.58	9.2458
148.72	9.2542
148.85	9.2634
148.98	9.2734
149.11	9.2842
149.25	9.2961
149.38	9.3091
149.51	9.3229
149.64	9.3375
149.78	9.3519
149.91	9.3683
150.04	9.3850
150.18	9.4027
150.31	9.4215
150.44	9.4412
150.58	9.4616
150.71	9.4822
150.84	9.5026
150.97	9.5233
151.11	9.5448
151.24	9.5666
151.37	9.5881
151.50	9.6095
151.64	9.6305
151.77	9.6513
151.90	9.6716
152.04	9.6919
152.17	9.7115
152.31	9.7310
152.44	9.7505
152.57	9.7703
152.70	9.7896
152.83	9.8086
152.97	9.8262
153.10	9.8439
153.23	9.8611
153.37	9.8786
153.50	9.8960
153.63	9.9132
153.76	9.9309
153.90	9.9475
154.03	9.9647
154.16	9.9823
154.30	10.0003
154.43	10.0180
154.56	10.0362
154.69	10.0545
154.83	10.0724
154.96	10.0924
155.09	10.1130
155.22	10.1338
155.36	10.1553
155.49	10.1771
155.63	10.2002
155.75	10.2232
155.89	10.2474
156.02	10.2721
156.15	10.2976
156.29	10.3237
156.43	10.3506
156.55	10.3792
156.69	10.4085
156.83	10.4385
156.95	10.4691
157.09	10.4999
157.22	10.5317
157.35	10.5646
157.49	10.5986
157.62	10.6334
157.75	10.6687
157.89	10.7040
158.02	10.7407
158.16	10.7782
158.29	10.8173
158.42	10.8573
158.55	10.8980
158.69	10.9396
158.82	10.9817
158.95	11.0250
159.09	11.0700
159.22	11.1159
159.35	11.1630
159.48	11.2105
159.62	11.2598
159.75	11.3097
159.88	11.3600
160.02	11.4125
160.15	11.4659
160.29	11.5200
160.42	11.5756
160.55	11.6306
160.68	11.6862
160.82	11.7432
160.95	11.8006
161.08	11.8591
161.22	11.9185
161.35	11.9756
161.48	12.0312
161.61	12.0891
161.75	12.1476
161.88	12.2059
162.01	12.2642
162.15	12.3220
162.28	12.3788
162.41	12.4340
162.55	12.4876
162.68	12.5401
162.81	12.5922
162.94	12.6435
163.08	12.6938
163.21	12.7433
163.34	12.7918
163.47	12.8396
163.61	12.8857
163.74	12.9171
163.87	12.9440
164.01	12.9825
164.14	13.0271
164.27	13.0737
164.40	13.1189
164.54	13.1612
164.68	13.2016
164.80	13.2409
164.94	13.2795
165.07	13.3177
165.20	13.3538
165.34	13.3878
165.47	13.4196
165.60	13.4499
165.74	13.4779
165.87	13.5044
166.00	13.5288
166.13	13.5508
166.27	13.5698
166.40	13.5843
166.53	13.5907
166.67	13.5988
166.80	13.6135
166.94	13.6308
167.07	13.6464
167.20	13.6565
167.34	13.6607
167.47	13.6580
167.60	13.6489
167.73	13.6318
167.87	13.6073
168.00	13.5734
168.14	13.5297
168.27	13.4749
168.40	13.4094
168.54	13.3327
168.67	13.2448
168.80	13.1460
168.94	13.0352
169.07	12.9130
169.20	12.7788
169.34	12.6336
169.47	12.4783
169.60	12.3143
169.74	12.1434
169.87	11.9690
170.01	11.7934
170.14	11.6201
170.27	11.4531
170.40	11.2944
170.53	11.1471
170.67	11.0138
170.80	10.8957
170.94	10.7928
171.07	10.7056
171.21	10.6320
171.34	10.5716
171.47	10.5223
171.60	10.4829
171.74	10.4518
171.87	10.4284
172.00	10.4114
172.13	10.3993
172.27	10.3916
172.40	10.3879
172.54	10.3861
172.67	10.3874
172.80	10.3902
172.94	10.3945
173.07	10.3998
173.20	10.4062
173.33	10.4128
173.47	10.4210
173.60	10.4293
173.73	10.4376
173.87	10.4467
174.00	10.4562
174.14	10.4661
174.27	10.4766
174.40	10.4869
174.54	10.4971
174.67	10.5072
174.80	10.5170
174.93	10.5268
175.06	10.5361
175.19	10.5465
175.33	10.5564
175.46	10.5659
175.60	10.5755
175.73	10.5847
175.87	10.5939
176.00	10.6030
176.13	10.6127
176.26	10.6224
176.40	10.6329
176.53	10.6435
176.66	10.6536
176.80	10.6640
176.93	10.6740
177.07	10.6835
177.19	10.6932
177.33	10.7024
177.46	10.7121
177.60	10.7217
177.73	10.7318
177.87	10.7428
178.00	10.7532
178.13	10.7633
178.26	10.7736
178.40	10.7835
178.53	10.7943
178.66	10.8050
178.80	10.8157
178.93	10.8268
179.06	10.8374
179.19	10.8478
179.33	10.8582
179.46	10.8685
179.59	10.8784
179.73	10.8887
179.86	10.8990
179.99	10.9091
180.13	10.9190
180.26	10.9288
180.40	10.9391
180.53	10.9490
180.66	10.9595
180.80	10.9698
180.92	10.9804
181.06	10.9907
181.19	11.0010
181.33	11.0111
181.45	11.0216
181.59	11.0324
181.72	11.0424
181.86	11.0530
181.99	11.0635
182.13	11.0742
182.26	11.0847
182.39	11.0953
182.53	11.1057
182.65	11.1156
182.78	11.1260
182.92	11.1366
183.05	11.1469
183.19	11.1570
183.32	11.1673
183.45	11.1768
183.58	11.1870
183.72	11.1975
183.85	11.2076
183.98	11.2176
184.12	11.2277
184.25	11.2380
184.38	11.2483
184.52	11.2587
184.65	11.2693
184.79	11.2797
184.92	11.2898
185.05	11.3002
185.18	11.3107
185.32	11.3215
185.45	11.3316
185.59	11.3422
185.72	11.3532
185.85	11.3640
185.98	11.3752
186.12	11.3865
186.25	11.3983
186.39	11.4087
186.52	11.4193
186.65	11.4296
186.79	11.4392
186.93	11.4502
187.05	11.4615
187.18	11.4728
187.32	11.4846
187.45	11.4960
187.59	11.5076
187.72	11.5186
187.85	11.5295
187.99	11.5403
188.11	11.5508
188.25	11.5614
188.39	11.5722
188.52	11.5830
188.65	11.5941
188.79	11.6049
188.92	11.6156
189.05	11.6268
189.19	11.6378
189.32	11.6487
189.45	11.6602
189.59	11.6707
189.72	11.6813
189.85	11.6927
189.99	11.7036
190.12	11.7149
190.25	11.7260
190.39	11.7368
190.52	11.7482
190.65	11.7587
190.79	11.7694
190.92	11.7801
191.06	11.7910
191.18	11.8015
191.32	11.8121
191.45	11.8241
191.58	11.8359
191.72	11.8470
191.85	11.8586
191.99	11.8694
192.12	11.8805
192.25	11.8919
192.38	11.9032
192.52	11.9144
192.65	11.9255
192.78	11.9361
192.92	11.9462
193.05	11.9576
193.18	11.9685
193.32	11.9797
193.45	11.9912
193.58	12.0024
193.72	12.0138
193.85	12.0247
193.98	12.0361
194.12	12.0467
194.25	12.0576
194.38	12.0689
194.52	12.0803
194.65	12.0916
194.78	12.1031
194.92	12.1142
195.05	12.1252
195.18	12.1369
195.32	12.1484
195.45	12.1593
195.58	12.1708
195.72	12.1817
195.85	12.1931
195.98	12.2042
196.12	12.2152
196.25	12.2256
196.39	12.2363
196.52	12.2476
196.65	12.2583
196.78	12.2705
196.92	12.2822
197.05	12.2936
197.18	12.3055
197.32	12.3172
197.45	12.3282
197.58	12.3397
197.72	12.3510
197.85	12.3619
197.99	12.3731
198.12	12.3839
198.25	12.3949
198.38	12.4057
198.52	12.4169
198.65	12.4284
198.78	12.4397
198.92	12.4515
199.05	12.4630
199.18	12.4741
199.32	12.4852
199.45	12.4960
199.58	12.5065
199.72	12.5178
199.85	12.5290
199.98	12.5397
200.12	12.5515
200.25	12.5628
200.38	12.5735
200.40	12.5751