File: 论文/¬€Œƒ/¬€Œƒ/dsc/20%10mm.txt
Filename:	D:\TGAdata\„∆√ŒœÈ\20150506\20%10mm.pdid

Temperature (°„C)	Heat Flow Endo Up (mW)
10.19	-2.6403
10.21	-2.4771
10.26	-2.3104
10.36	-2.1165
10.48	-2.0468
10.60	-2.0397
10.73	-1.9979
10.85	-1.8715
10.99	-1.6586
11.11	-1.3814
11.25	-1.0639
11.38	-0.7322
11.51	-0.4025
11.65	-0.0847
11.78	0.2128
11.91	0.4908
12.03	0.7422
12.18	0.9704
12.31	1.1773
12.44	1.3621
12.58	1.5281
12.71	1.6752
12.84	1.8059
12.98	1.9227
13.11	2.0256
13.24	2.1183
13.37	2.1988
13.51	2.2706
13.64	2.3346
13.78	2.3912
13.91	2.4426
14.05	2.4871
14.18	2.5264
14.31	2.5623
14.45	2.5935
14.58	2.6224
14.72	2.6477
14.85	2.6695
14.98	2.6900
15.12	2.7084
15.25	2.7252
15.38	2.7403
15.52	2.7534
15.65	2.7663
15.78	2.7779
15.92	2.7886
16.05	2.7997
16.19	2.8084
16.32	2.8168
16.45	2.8246
16.58	2.8321
16.72	2.8387
16.85	2.8450
16.99	2.8507
17.12	2.8577
17.25	2.8647
17.38	2.8700
17.52	2.8771
17.65	2.8835
17.79	2.8891
17.92	2.8958
18.05	2.9010
18.18	2.9061
18.32	2.9117
18.45	2.9160
18.59	2.9201
18.72	2.9245
18.85	2.9277
18.99	2.9315
19.12	2.9353
19.25	2.9379
19.38	2.9417
19.52	2.9449
19.65	2.9474
19.78	2.9516
19.92	2.9544
20.05	2.9575
20.18	2.9616
20.32	2.9646
20.45	2.9678
20.58	2.9717
20.72	2.9742
20.85	2.9786
20.98	2.9820
21.12	2.9848
21.25	2.9890
21.38	2.9927
21.52	2.9962
21.65	3.0004
21.78	3.0036
21.92	3.0076
22.05	3.0114
22.18	3.0145
22.32	3.0192
22.45	3.0226
22.58	3.0251
22.72	3.0298
22.84	3.0332
22.98	3.0370
23.11	3.0418
23.24	3.0457
23.38	3.0498
23.51	3.0542
23.65	3.0577
23.78	3.0630
23.91	3.0665
24.05	3.0698
24.18	3.0744
24.31	3.0776
24.44	3.0807
24.57	3.0850
24.71	3.0876
24.84	3.0919
24.98	3.0959
25.10	3.0991
25.25	3.1038
25.37	3.1072
25.51	3.1105
25.64	3.1150
25.78	3.1178
25.91	3.1219
26.04	3.1258
26.18	3.1290
26.30	3.1337
26.45	3.1376
26.57	3.1417
26.71	3.1466
26.84	3.1508
26.97	3.1545
27.11	3.1581
27.24	3.1612
27.38	3.1649
27.51	3.1674
27.64	3.1698
27.78	3.1743
27.91	3.1776
28.04	3.1810
28.18	3.1865
28.31	3.1904
28.45	3.1960
28.57	3.2010
28.71	3.2048
28.84	3.2102
28.98	3.2142
29.11	3.2182
29.24	3.2233
29.38	3.2268
29.51	3.2309
29.64	3.2351
29.78	3.2383
29.91	3.2427
30.05	3.2461
30.18	3.2496
30.31	3.2549
30.44	3.2582
30.57	3.2627
30.71	3.2670
30.85	3.2715
30.98	3.2761
31.11	3.2800
31.25	3.2837
31.38	3.2883
31.51	3.2921
31.64	3.2963
31.78	3.3004
31.91	3.3041
32.04	3.3088
32.17	3.3124
32.31	3.3161
32.44	3.3203
32.57	3.3235
32.71	3.3276
32.84	3.3318
32.98	3.3353
33.11	3.3404
33.24	3.3441
33.38	3.3472
33.51	3.3518
33.64	3.3548
33.77	3.3587
33.91	3.3625
34.04	3.3661
34.17	3.3712
34.31	3.3751
34.45	3.3794
34.58	3.3849
34.71	3.3884
34.84	3.3925
34.98	3.3972
35.11	3.4013
35.24	3.4062
35.37	3.4104
35.51	3.4145
35.64	3.4190
35.77	3.4221
35.91	3.4267
36.04	3.4307
36.18	3.4334
36.31	3.4378
36.44	3.4413
36.58	3.4457
36.71	3.4504
36.84	3.4545
36.97	3.4593
37.11	3.4635
37.24	3.4674
37.38	3.4726
37.51	3.4765
37.64	3.4814
37.77	3.4864
37.91	3.4904
38.04	3.4954
38.18	3.4993
38.31	3.5026
38.44	3.5072
38.58	3.5105
38.71	3.5152
38.84	3.5197
38.98	3.5233
39.11	3.5282
39.24	3.5322
39.38	3.5365
39.51	3.5425
39.64	3.5464
39.77	3.5516
39.91	3.5564
40.04	3.5601
40.17	3.5654
40.30	3.5692
40.45	3.5736
40.58	3.5787
40.70	3.5823
40.84	3.5875
40.98	3.5914
41.11	3.5953
41.24	3.6002
41.38	3.6042
41.51	3.6091
41.64	3.6133
41.78	3.6175
41.91	3.6228
42.04	3.6265
42.17	3.6309
42.31	3.6355
42.44	3.6397
42.58	3.6454
42.71	3.6500
42.84	3.6539
42.98	3.6596
43.10	3.6635
43.24	3.6678
43.38	3.6718
43.51	3.6756
43.64	3.6805
43.77	3.6850
43.91	3.6890
44.05	3.6942
44.17	3.6988
44.31	3.7045
44.44	3.7094
44.57	3.7134
44.70	3.7190
44.84	3.7227
44.98	3.7274
45.10	3.7321
45.24	3.7360
45.38	3.7407
45.50	3.7452
45.64	3.7494
45.77	3.7546
45.90	3.7587
46.04	3.7633
46.18	3.7677
46.31	3.7719
46.44	3.7778
46.58	3.7820
46.71	3.7876
46.84	3.7925
46.97	3.7964
47.10	3.8016
47.24	3.8058
47.38	3.8104
47.51	3.8154
47.65	3.8193
47.77	3.8249
47.90	3.8297
48.05	3.8346
48.18	3.8406
48.31	3.8451
48.44	3.8510
48.57	3.8558
48.70	3.8601
48.84	3.8650
48.98	3.8685
49.11	3.8729
49.24	3.8776
49.38	3.8813
49.51	3.8865
49.64	3.8904
49.77	3.8953
49.91	3.8997
50.04	3.9041
50.18	3.9100
50.31	3.9153
50.44	3.9202
50.58	3.9259
50.71	3.9307
50.84	3.9358
50.98	3.9403
51.11	3.9447
51.24	3.9495
51.38	3.9535
51.51	3.9578
51.64	3.9625
51.77	3.9673
51.91	3.9729
52.04	3.9767
52.17	3.9815
52.31	3.9863
52.44	3.9906
52.57	3.9960
52.71	4.0002
52.84	4.0050
52.98	4.0103
53.11	4.0146
53.24	4.0202
53.38	4.0253
53.50	4.0301
53.65	4.0355
53.77	4.0399
53.91	4.0455
54.04	4.0503
54.18	4.0542
54.31	4.0597
54.44	4.0639
54.58	4.0688
54.71	4.0738
54.84	4.0778
54.98	4.0833
55.11	4.0876
55.24	4.0924
55.38	4.0968
55.52	4.1006
55.63	4.1056
55.77	4.1096
55.91	4.1139
56.04	4.1185
56.18	4.1229
56.31	4.1290
56.44	4.1339
56.58	4.1386
56.70	4.1440
56.84	4.1483
56.98	4.1534
57.11	4.1573
57.25	4.1624
57.38	4.1672
57.51	4.1715
57.64	4.1769
57.77	4.1817
57.91	4.1860
58.04	4.1913
58.18	4.1958
58.31	4.2011
58.44	4.2056
58.58	4.2094
58.70	4.2151
58.84	4.2201
58.98	4.2258
59.10	4.2306
59.24	4.2354
59.38	4.2409
59.51	4.2456
59.64	4.2514
59.77	4.2561
59.91	4.2600
60.04	4.2653
60.18	4.2687
60.31	4.2736
60.44	4.2780
60.58	4.2819
60.70	4.2874
60.84	4.2914
60.97	4.2963
61.11	4.3007
61.24	4.3048
61.38	4.3096
61.51	4.3143
61.64	4.3205
61.77	4.3256
61.90	4.3303
62.04	4.3361
62.18	4.3411
62.31	4.3462
62.44	4.3518
62.58	4.3562
62.70	4.3615
62.84	4.3656
62.98	4.3707
63.11	4.3758
63.24	4.3798
63.38	4.3855
63.50	4.3899
63.64	4.3947
63.77	4.3993
63.91	4.4034
64.04	4.4086
64.17	4.4126
64.31	4.4176
64.44	4.4224
64.58	4.4270
64.71	4.4323
64.85	4.4376
64.98	4.4428
65.11	4.4478
65.25	4.4525
65.38	4.4578
65.51	4.4622
65.64	4.4674
65.78	4.4732
65.91	4.4779
66.05	4.4840
66.18	4.4880
66.31	4.4932
66.45	4.4981
66.58	4.5020
66.71	4.5077
66.84	4.5122
66.98	4.5171
67.11	4.5218
67.25	4.5259
67.38	4.5314
67.51	4.5358
67.65	4.5410
67.78	4.5456
67.92	4.5503
68.05	4.5564
68.18	4.5611
68.32	4.5660
68.45	4.5719
68.58	4.5765
68.71	4.5818
68.85	4.5858
68.98	4.5905
69.11	4.5959
69.25	4.6010
69.38	4.6075
69.51	4.6126
69.64	4.6184
69.78	4.6242
69.91	4.6286
70.04	4.6348
70.17	4.6393
70.31	4.6446
70.45	4.6495
70.58	4.6540
70.72	4.6598
70.84	4.6649
70.98	4.6707
71.12	4.6751
71.24	4.6789
71.38	4.6844
71.51	4.6888
71.65	4.6946
71.78	4.6997
71.92	4.7042
72.05	4.7099
72.18	4.7146
72.31	4.7202
72.45	4.7252
72.59	4.7294
72.72	4.7349
72.85	4.7400
72.98	4.7455
73.12	4.7505
73.25	4.7560
73.39	4.7616
73.52	4.7660
73.65	4.7716
73.79	4.7768
73.92	4.7819
74.05	4.7877
74.19	4.7926
74.32	4.7986
74.45	4.8033
74.59	4.8078
74.72	4.8131
74.86	4.8179
74.99	4.8236
75.12	4.8284
75.26	4.8337
75.39	4.8389
75.52	4.8439
75.65	4.8500
75.79	4.8551
75.92	4.8608
76.05	4.8653
76.19	4.8700
76.32	4.8747
76.45	4.8797
76.59	4.8852
76.72	4.8904
76.85	4.8956
76.99	4.9016
77.13	4.9061
77.26	4.9117
77.39	4.9160
77.53	4.9205
77.66	4.9265
77.79	4.9308
77.92	4.9369
78.06	4.9422
78.19	4.9482
78.33	4.9540
78.46	4.9593
78.59	4.9656
78.72	4.9713
78.86	4.9764
79.00	4.9820
79.13	4.9866
79.25	4.9928
79.39	4.9972
79.53	5.0022
79.66	5.0074
79.80	5.0116
79.93	5.0175
80.06	5.0223
80.20	5.0284
80.33	5.0342
80.46	5.0396
80.59	5.0453
80.72	5.0508
80.86	5.0570
80.99	5.0631
81.13	5.0697
81.26	5.0765
81.39	5.0822
81.52	5.0889
81.66	5.0948
81.79	5.1012
81.92	5.1062
82.05	5.1121
82.19	5.1167
82.33	5.1216
82.45	5.1255
82.59	5.1307
82.72	5.1347
82.85	5.1399
82.99	5.1444
83.13	5.1494
83.26	5.1549
83.39	5.1600
83.52	5.1652
83.65	5.1706
83.79	5.1752
83.92	5.1800
84.05	5.1852
84.19	5.1899
84.32	5.1952
84.45	5.2009
84.59	5.2069
84.72	5.2126
84.85	5.2185
84.99	5.2241
85.12	5.2304
85.25	5.2355
85.38	5.2421
85.52	5.2480
85.65	5.2537
85.78	5.2589
85.92	5.2646
86.05	5.2704
86.18	5.2760
86.32	5.2813
86.45	5.2865
86.58	5.2923
86.71	5.2978
86.85	5.3038
86.98	5.3098
87.11	5.3163
87.25	5.3222
87.38	5.3291
87.51	5.3349
87.65	5.3407
87.78	5.3456
87.91	5.3515
88.05	5.3574
88.18	5.3647
88.31	5.3705
88.44	5.3766
88.58	5.3815
88.71	5.3875
88.84	5.3922
88.98	5.3976
89.11	5.4030
89.24	5.4091
89.38	5.4148
89.50	5.4212
89.64	5.4271
89.78	5.4339
89.90	5.4396
90.04	5.4451
90.17	5.4507
90.30	5.4558
90.44	5.4615
90.58	5.4673
90.70	5.4733
90.84	5.4791
90.97	5.4855
91.10	5.4914
91.23	5.4984
91.37	5.5038
91.50	5.5102
91.64	5.5165
91.77	5.5230
91.90	5.5282
92.04	5.5348
92.17	5.5411
92.30	5.5475
92.44	5.5535
92.57	5.5600
92.70	5.5666
92.83	5.5727
92.97	5.5789
93.10	5.5846
93.23	5.5909
93.37	5.5966
93.50	5.6027
93.63	5.6096
93.77	5.6159
93.90	5.6217
94.04	5.6280
94.17	5.6333
94.30	5.6390
94.43	5.6441
94.57	5.6506
94.70	5.6570
94.83	5.6634
94.97	5.6702
95.10	5.6770
95.23	5.6833
95.37	5.6895
95.50	5.6955
95.63	5.7013
95.76	5.7071
95.90	5.7132
96.03	5.7202
96.17	5.7260
96.30	5.7323
96.43	5.7376
96.57	5.7437
96.70	5.7483
96.83	5.7544
96.96	5.7596
97.10	5.7665
97.23	5.7737
97.37	5.7809
97.50	5.7880
97.63	5.7955
97.77	5.8020
97.89	5.8090
98.03	5.8161
98.16	5.8226
98.30	5.8299
98.43	5.8371
98.57	5.8442
98.70	5.8507
98.83	5.8573
98.96	5.8628
99.09	5.8696
99.23	5.8750
99.36	5.8819
99.49	5.8878
99.63	5.8942
99.76	5.9003
99.89	5.9070
100.03	5.9132
100.16	5.9202
100.30	5.9261
100.43	5.9324
100.57	5.9396
100.70	5.9462
100.83	5.9526
100.96	5.9591
101.10	5.9658
101.23	5.9725
101.36	5.9793
101.50	5.9860
101.63	5.9930
101.76	5.9996
101.89	6.0065
102.03	6.0132
102.16	6.0198
102.30	6.0267
102.43	6.0338
102.56	6.0403
102.70	6.0465
102.83	6.0527
102.96	6.0588
103.10	6.0645
103.23	6.0715
103.36	6.0786
103.50	6.0853
103.63	6.0929
103.76	6.0996
103.90	6.1063
104.03	6.1124
104.16	6.1191
104.29	6.1260
104.43	6.1330
104.56	6.1400
104.70	6.1470
104.83	6.1538
104.96	6.1599
105.10	6.1669
105.23	6.1733
105.36	6.1799
105.50	6.1869
105.63	6.1944
105.76	6.2016
105.90	6.2089
106.03	6.2151
106.16	6.2219
106.29	6.2294
106.43	6.2370
106.56	6.2440
106.69	6.2516
106.83	6.2590
106.96	6.2664
107.09	6.2737
107.23	6.2796
107.36	6.2860
107.49	6.2919
107.63	6.2983
107.76	6.3043
107.89	6.3104
108.03	6.3168
108.15	6.3238
108.29	6.3306
108.43	6.3385
108.56	6.3452
108.69	6.3526
108.82	6.3602
108.96	6.3679
109.09	6.3752
109.23	6.3824
109.36	6.3895
109.49	6.3968
109.63	6.4044
109.76	6.4115
109.89	6.4188
110.03	6.4248
110.15	6.4325
110.29	6.4393
110.43	6.4466
110.56	6.4541
110.69	6.4616
110.83	6.4692
110.96	6.4772
111.09	6.4837
111.23	6.4914
111.36	6.4991
111.50	6.5060
111.63	6.5136
111.75	6.5211
111.89	6.5282
112.03	6.5349
112.15	6.5423
112.30	6.5495
112.43	6.5574
112.56	6.5644
112.69	6.5719
112.83	6.5782
112.96	6.5868
113.09	6.5936
113.23	6.6004
113.35	6.6077
113.50	6.6148
113.62	6.6228
113.75	6.6296
113.89	6.6376
114.03	6.6456
114.16	6.6533
114.30	6.6604
114.43	6.6674
114.56	6.6747
114.70	6.6821
114.83	6.6896
114.96	6.6974
115.09	6.7056
115.23	6.7135
115.35	6.7222
115.49	6.7298
115.63	6.7384
115.76	6.7459
115.89	6.7539
116.03	6.7608
116.16	6.7685
116.29	6.7753
116.43	6.7823
116.56	6.7894
116.69	6.7966
116.83	6.8036
116.96	6.8113
117.09	6.8197
117.22	6.8278
117.35	6.8361
117.49	6.8443
117.63	6.8533
117.76	6.8621
117.89	6.8710
118.02	6.8787
118.15	6.8868
118.29	6.8942
118.42	6.9016
118.56	6.9083
118.70	6.9157
118.82	6.9224
118.95	6.9301
119.09	6.9376
119.23	6.9453
119.36	6.9536
119.49	6.9606
119.62	6.9692
119.76	6.9766
119.89	6.9852
120.02	6.9936
120.16	7.0026
120.29	7.0110
120.42	7.0195
120.56	7.0282
120.69	7.0367
120.83	7.0453
120.95	7.0536
121.09	7.0623
121.23	7.0697
121.36	7.0775
121.49	7.0847
121.63	7.0928
121.76	7.1008
121.89	7.1095
122.03	7.1176
122.16	7.1265
122.29	7.1357
122.43	7.1439
122.55	7.1517
122.69	7.1588
122.83	7.1666
122.95	7.1739
123.09	7.1822
123.23	7.1901
123.36	7.1984
123.49	7.2070
123.62	7.2160
123.76	7.2244
123.89	7.2333
124.03	7.2412
124.16	7.2488
124.29	7.2572
124.42	7.2662
124.55	7.2750
124.70	7.2837
124.82	7.2927
124.96	7.3015
125.09	7.3100
125.23	7.3180
125.36	7.3266
125.49	7.3350
125.63	7.3435
125.76	7.3511
125.89	7.3589
126.03	7.3676
126.15	7.3762
126.29	7.3848
126.43	7.3930
126.55	7.4020
126.69	7.4104
126.83	7.4190
126.95	7.4275
127.09	7.4360
127.22	7.4447
127.35	7.4536
127.49	7.4629
127.63	7.4722
127.76	7.4816
127.89	7.4904
128.02	7.4985
128.16	7.5066
128.29	7.5161
128.43	7.5258
128.56	7.5356
128.69	7.5448
128.82	7.5540
128.96	7.5643
129.09	7.5730
129.22	7.5820
129.35	7.5905
129.49	7.5984
129.63	7.6056
129.76	7.6137
129.89	7.6216
130.03	7.6296
130.16	7.6385
130.29	7.6471
130.43	7.6560
130.56	7.6652
130.69	7.6751
130.82	7.6854
130.96	7.6959
131.10	7.7053
131.22	7.7147
131.36	7.7231
131.50	7.7321
131.63	7.7412
131.76	7.7505
131.89	7.7595
132.03	7.7685
132.17	7.7767
132.30	7.7848
132.43	7.7942
132.56	7.8032
132.69	7.8127
132.83	7.8226
132.96	7.8328
133.10	7.8418
133.22	7.8516
133.36	7.8617
133.50	7.8719
133.63	7.8815
133.76	7.8910
133.90	7.9008
134.03	7.9104
134.18	7.9204
134.29	7.9301
134.43	7.9403
134.56	7.9500
134.69	7.9596
134.82	7.9691
134.95	7.9789
135.09	7.9887
135.22	7.9982
135.36	8.0083
135.49	8.0180
135.63	8.0280
135.76	8.0374
135.89	8.0467
136.03	8.0550
136.16	8.0643
136.29	8.0748
136.43	8.0853
136.56	8.0958
136.69	8.1066
136.83	8.1175
136.96	8.1275
137.09	8.1379
137.22	8.1473
137.36	8.1572
137.49	8.1671
137.63	8.1775
137.76	8.1880
137.89	8.1983
138.03	8.2081
138.16	8.2175
138.30	8.2278
138.43	8.2375
138.57	8.2474
138.69	8.2573
138.83	8.2681
138.97	8.2783
139.09	8.2896
139.23	8.3013
139.36	8.3120
139.50	8.3233
139.63	8.3347
139.77	8.3452
139.90	8.3557
140.03	8.3672
140.17	8.3770
140.30	8.3868
140.43	8.3971
140.57	8.4066
140.70	8.4160
140.83	8.4264
140.97	8.4369
141.10	8.4477
141.23	8.4593
141.37	8.4704
141.50	8.4817
141.63	8.4926
141.77	8.5041
141.90	8.5148
142.03	8.5256
142.17	8.5370
142.30	8.5478
142.43	8.5594
142.57	8.5702
142.70	8.5818
142.84	8.5930
142.97	8.6044
143.10	8.6161
143.24	8.6280
143.37	8.6395
143.50	8.6514
143.64	8.6632
143.77	8.6751
143.90	8.6873
144.04	8.6989
144.17	8.7114
144.30	8.7238
144.44	8.7360
144.57	8.7481
144.70	8.7610
144.83	8.7740
144.97	8.7872
145.10	8.8004
145.24	8.8130
145.37	8.8256
145.50	8.8378
145.64	8.8503
145.77	8.8632
145.90	8.8759
146.03	8.8885
146.17	8.9017
146.30	8.9142
146.43	8.9270
146.57	8.9391
146.69	8.9512
146.83	8.9638
146.97	8.9775
147.10	8.9915
147.23	9.0057
147.37	9.0196
147.50	9.0324
147.63	9.0465
147.77	9.0613
147.90	9.0762
148.03	9.0914
148.17	9.1067
148.30	9.1220
148.43	9.1375
148.56	9.1527
148.69	9.1678
148.83	9.1824
148.96	9.1971
149.09	9.2107
149.23	9.2244
149.36	9.2377
149.50	9.2511
149.63	9.2651
149.77	9.2785
149.89	9.2927
150.03	9.3062
150.16	9.3195
150.29	9.3319
150.43	9.3432
150.56	9.3538
150.69	9.3649
150.82	9.3763
150.96	9.3878
151.09	9.3995
151.22	9.4117
151.36	9.4236
151.49	9.4355
151.62	9.4464
151.75	9.4565
151.89	9.4671
152.02	9.4777
152.15	9.4880
152.29	9.4999
152.42	9.5119
152.55	9.5246
152.68	9.5392
152.82	9.5545
152.95	9.5690
153.08	9.5838
153.22	9.5993
153.35	9.6149
153.48	9.6316
153.62	9.6482
153.75	9.6648
153.88	9.6823
154.01	9.6999
154.15	9.7173
154.28	9.7360
154.42	9.7550
154.55	9.7739
154.68	9.7936
154.81	9.8127
154.95	9.8319
155.08	9.8512
155.21	9.8705
155.34	9.8905
155.47	9.9107
155.61	9.9310
155.74	9.9508
155.88	9.9708
156.01	9.9908
156.14	10.0114
156.27	10.0321
156.41	10.0529
156.55	10.0751
156.68	10.0979
156.81	10.1222
156.94	10.1475
157.08	10.1720
157.21	10.1956
157.34	10.2186
157.47	10.2413
157.61	10.2639
157.74	10.2874
157.88	10.3109
158.01	10.3347
158.15	10.3595
158.28	10.3849
158.41	10.4105
158.55	10.4368
158.68	10.4638
158.80	10.4914
158.94	10.5200
159.08	10.5489
159.21	10.5777
159.34	10.6074
159.48	10.6375
159.61	10.6675
159.74	10.6986
159.87	10.7298
160.01	10.7611
160.14	10.7939
160.28	10.8274
160.40	10.8620
160.54	10.8978
160.67	10.9336
160.80	10.9697
160.94	11.0058
161.07	11.0432
161.20	11.0813
161.34	11.1206
161.47	11.1614
161.60	11.2036
161.74	11.2483
161.87	11.2931
162.00	11.3389
162.13	11.3860
162.26	11.4337
162.40	11.4860
162.53	11.5404
162.67	11.5927
162.80	11.6451
162.94	11.6975
163.06	11.7497
163.19	11.8034
163.33	11.8573
163.47	11.9121
163.60	11.9672
163.73	12.0233
163.87	12.0795
164.00	12.1363
164.13	12.1937
164.26	12.2516
164.40	12.3089
164.53	12.3666
164.66	12.4240
164.80	12.4815
164.93	12.5388
165.06	12.5950
165.19	12.6498
165.33	12.7036
165.46	12.7568
165.60	12.8098
165.73	12.8618
165.86	12.9122
166.00	12.9615
166.13	13.0102
166.26	13.0573
166.39	13.1021
166.53	13.1445
166.66	13.1844
166.80	13.2222
166.93	13.2585
167.06	13.2928
167.19	13.3262
167.33	13.3575
167.46	13.3865
167.59	13.4132
167.72	13.4370
167.86	13.4596
167.99	13.4794
168.13	13.4964
168.26	13.5102
168.40	13.5211
168.53	13.5285
168.66	13.5323
168.79	13.5317
168.93	13.5267
169.06	13.5176
169.19	13.5037
169.33	13.4840
169.46	13.4594
169.59	13.4289
169.72	13.3925
169.86	13.3495
170.00	13.3003
170.13	13.2434
170.26	13.1794
170.40	13.1089
170.53	13.0298
170.66	12.9423
170.80	12.8475
170.93	12.7451
171.06	12.6345
171.19	12.5173
171.33	12.3940
171.46	12.2652
171.60	12.1324
171.73	11.9970
171.86	11.8613
172.00	11.7280
172.13	11.5982
172.26	11.4737
172.40	11.3563
172.53	11.2469
172.66	11.1457
172.80	11.0540
172.93	10.9721
173.06	10.9053
173.19	10.8477
173.33	10.7949
173.46	10.7469
173.59	10.7035
173.72	10.6645
173.86	10.6310
174.00	10.6034
174.13	10.5812
174.26	10.5631
174.39	10.5496
174.53	10.5387
174.66	10.5304
174.80	10.5247
174.93	10.5211
175.06	10.5188
175.19	10.5187
175.33	10.5197
175.46	10.5222
175.59	10.5252
175.73	10.5294
175.86	10.5346
175.99	10.5405
176.13	10.5477
176.26	10.5548
176.40	10.5626
176.53	10.5714
176.66	10.5793
176.79	10.5879
176.93	10.5972
177.06	10.6059
177.19	10.6149
177.33	10.6236
177.46	10.6324
177.59	10.6410
177.72	10.6505
177.86	10.6595
177.99	10.6693
178.13	10.6802
178.26	10.6909
178.40	10.7019
178.53	10.7132
178.65	10.7237
178.79	10.7340
178.93	10.7441
179.06	10.7534
179.19	10.7631
179.33	10.7733
179.46	10.7827
179.59	10.7924
179.72	10.8027
179.85	10.8127
179.99	10.8226
180.12	10.8334
180.26	10.8448
180.39	10.8554
180.52	10.8665
180.65	10.8772
180.79	10.8877
180.92	10.8983
181.06	10.9081
181.19	10.9178
181.32	10.9282
181.45	10.9394
181.59	10.9509
181.72	10.9627
181.85	10.9745
181.99	10.9850
182.12	10.9958
182.25	11.0064
182.38	11.0171
182.52	11.0282
182.65	11.0397
182.78	11.0498
182.93	11.0595
183.05	11.0701
183.18	11.0807
183.32	11.0913
183.45	11.1020
183.58	11.1122
183.72	11.1221
183.85	11.1319
183.98	11.1416
184.12	11.1521
184.25	11.1629
184.38	11.1730
184.52	11.1834
184.65	11.1938
184.79	11.2042
184.92	11.2155
185.05	11.2264
185.19	11.2373
185.32	11.2474
185.45	11.2573
185.59	11.2674
185.72	11.2781
185.85	11.2893
185.99	11.3007
186.12	11.3114
186.25	11.3221
186.39	11.3323
186.52	11.3423
186.65	11.3530
186.79	11.3637
186.92	11.3746
187.05	11.3859
187.19	11.3967
187.32	11.4072
187.45	11.4182
187.58	11.4296
187.72	11.4404
187.85	11.4516
187.98	11.4621
188.12	11.4723
188.25	11.4819
188.38	11.4915
188.52	11.5014
188.65	11.5119
188.79	11.5234
188.92	11.5343
189.05	11.5455
189.18	11.5558
189.32	11.5670
189.45	11.5790
189.58	11.5912
189.72	11.6030
189.85	11.6152
189.99	11.6274
190.12	11.6383
190.25	11.6499
190.38	11.6606
190.52	11.6707
190.65	11.6815
190.79	11.6917
190.92	11.7023
191.06	11.7127
191.19	11.7240
191.32	11.7353
191.45	11.7469
191.58	11.7579
191.72	11.7685
191.85	11.7797
191.99	11.7909
192.12	11.8021
192.25	11.8130
192.38	11.8239
192.52	11.8349
192.65	11.8460
192.79	11.8573
192.92	11.8680
193.05	11.8790
193.18	11.8903
193.32	11.9011
193.45	11.9120
193.59	11.9236
193.72	11.9354
193.85	11.9465
193.99	11.9581
194.12	11.9692
194.25	11.9797
194.39	11.9901
194.52	12.0010
194.66	12.0114
194.79	12.0228
194.92	12.0338
195.05	12.0452
195.19	12.0571
195.33	12.0696
195.45	12.0811
195.59	12.0921
195.72	12.1032
195.86	12.1146
195.99	12.1257
196.13	12.1370
196.26	12.1481
196.39	12.1595
196.53	12.1702
196.65	12.1817
196.79	12.1932
196.92	12.2046
197.06	12.2165
197.19	12.2281
197.32	12.2403
197.45	12.2520
197.59	12.2634
197.72	12.2752
197.86	12.2867
197.99	12.2974
198.13	12.3083
198.25	12.3197
198.39	12.3318
198.52	12.3436
198.66	12.3549
198.79	12.3660
198.93	12.3771
199.06	12.3885
199.19	12.3992
199.32	12.4098
199.46	12.4210
199.59	12.4320
199.72	12.4422
199.85	12.4532
199.99	12.4644
200.12	12.4755