File: 论文/¬€Œƒ/¬€Œƒ/dsc/20%5mm.txt
Filename:	D:\TGAdata\„∆√ŒœÈ\20150506\20%5mm.pdid

Temperature (°„C)	Heat Flow Endo Up (mW)
24.30	9.0603
23.49	8.3169
22.68	7.8735
21.87	6.1030
21.08	5.4320
20.30	5.0307
19.53	4.4481
18.75	3.6915
18.00	2.9091
17.25	2.2115
16.50	1.6430
15.77	1.1956
15.03	0.8450
14.31	0.5623
13.60	-3.5588
13.02	-12.0154
12.65	-16.9012
12.51	-18.2525
12.48	-17.7563
12.54	-16.5689
12.62	-15.1175
12.73	-13.5270
12.85	-11.8494
12.97	-10.1400
13.09	-8.4669
13.22	-6.8824
13.34	-5.4297
13.47	-4.1298
13.60	-2.9856
13.74	-1.9931
13.87	-1.1408
14.00	-0.4171
14.13	0.1927
14.27	0.7056
14.40	1.1347
14.53	1.4928
14.66	1.7907
14.80	2.0374
14.93	2.2414
15.06	2.4101
15.20	2.5500
15.33	2.6656
15.46	2.7607
15.60	2.8396
15.73	2.9053
15.87	2.9595
16.00	3.0056
16.13	3.0427
16.26	3.0747
16.40	3.1010
16.53	3.1232
16.67	3.1428
16.79	3.1583
16.93	3.1719
17.07	3.1846
17.20	3.1959
17.33	3.2049
17.46	3.2139
17.59	3.2218
17.73	3.2284
17.86	3.2350
18.00	3.2409
18.13	3.2457
18.26	3.2515
18.40	3.2560
18.53	3.2600
18.66	3.2643
18.80	3.2674
18.93	3.2714
19.06	3.2750
19.20	3.2778
19.33	3.2814
19.46	3.2845
19.59	3.2869
19.72	3.2913
19.86	3.2945
19.99	3.2974
20.13	3.3015
20.26	3.3044
20.39	3.3077
20.53	3.3119
20.66	3.3144
20.79	3.3180
20.92	3.3216
21.05	3.3245
21.19	3.3285
21.32	3.3317
21.45	3.3346
21.58	3.3388
21.72	3.3417
21.85	3.3454
21.99	3.3497
22.12	3.3527
22.25	3.3572
22.38	3.3612
22.52	3.3638
22.65	3.3676
22.78	3.3702
22.91	3.3734
23.05	3.3774
23.18	3.3801
23.32	3.3835
23.45	3.3879
23.58	3.3906
23.72	3.3952
23.85	3.3987
23.98	3.4017
24.11	3.4062
24.24	3.4093
24.38	3.4125
24.51	3.4161
24.64	3.4188
24.78	3.4223
24.91	3.4257
25.04	3.4288
25.18	3.4328
25.30	3.4357
25.44	3.4387
25.57	3.4431
25.70	3.4460
25.84	3.4500
25.97	3.4539
26.10	3.4571
26.24	3.4615
26.37	3.4651
26.50	3.4687
26.64	3.4735
26.77	3.4764
26.90	3.4801
27.04	3.4836
27.17	3.4860
27.30	3.4893
27.44	3.4923
27.57	3.4949
27.70	3.4992
27.84	3.5030
27.97	3.5067
28.10	3.5116
28.23	3.5154
28.37	3.5197
28.50	3.5239
28.64	3.5273
28.77	3.5322
28.90	3.5359
29.03	3.5396
29.17	3.5440
29.30	3.5473
29.43	3.5511
29.57	3.5547
29.70	3.5579
29.83	3.5615
29.97	3.5647
30.10	3.5677
30.23	3.5722
30.37	3.5749
30.50	3.5787
30.63	3.5826
30.77	3.5862
30.90	3.5898
31.04	3.5937
31.16	3.5968
31.30	3.6011
31.43	3.6047
31.57	3.6087
31.70	3.6122
31.83	3.6154
31.96	3.6192
32.10	3.6228
32.23	3.6259
32.36	3.6307
32.49	3.6339
32.63	3.6377
32.76	3.6417
32.89	3.6448
33.03	3.6490
33.16	3.6521
33.30	3.6558
33.43	3.6601
33.57	3.6635
33.70	3.6676
33.83	3.6718
33.96	3.6760
34.09	3.6804
34.23	3.6843
34.36	3.6876
34.50	3.6922
34.63	3.6954
34.75	3.6992
34.89	3.7038
35.03	3.7071
35.15	3.7118
35.30	3.7149
35.42	3.7189
35.55	3.7233
35.69	3.7276
35.83	3.7312
35.95	3.7354
36.09	3.7389
36.23	3.7434
36.36	3.7474
36.49	3.7507
36.62	3.7550
36.75	3.7584
36.89	3.7629
37.02	3.7673
37.15	3.7705
37.29	3.7746
37.42	3.7784
37.56	3.7827
37.69	3.7861
37.82	3.7893
37.95	3.7930
38.08	3.7969
38.22	3.8009
38.35	3.8054
38.49	3.8085
38.63	3.8128
38.76	3.8172
38.88	3.8206
39.02	3.8249
39.15	3.8292
39.29	3.8329
39.42	3.8377
39.55	3.8417
39.69	3.8466
39.82	3.8506
39.95	3.8545
40.09	3.8598
40.22	3.8633
40.35	3.8672
40.49	3.8725
40.62	3.8757
40.75	3.8802
40.88	3.8838
41.02	3.8875
41.15	3.8917
41.28	3.8956
41.41	3.9003
41.55	3.9054
41.68	3.9089
41.82	3.9138
41.95	3.9176
42.08	3.9220
42.22	3.9267
42.35	3.9304
42.48	3.9354
42.61	3.9397
42.75	3.9433
42.88	3.9481
43.02	3.9516
43.15	3.9561
43.27	3.9607
43.41	3.9643
43.55	3.9696
43.68	3.9739
43.81	3.9781
43.94	3.9831
44.08	3.9861
44.21	3.9908
44.34	3.9946
44.48	3.9982
44.61	4.0031
44.74	4.0070
44.88	4.0114
45.01	4.0155
45.14	4.0191
45.28	4.0237
45.41	4.0280
45.54	4.0319
45.68	4.0371
45.81	4.0414
45.94	4.0459
46.08	4.0502
46.21	4.0542
46.34	4.0585
46.48	4.0625
46.61	4.0668
46.74	4.0708
46.88	4.0749
47.01	4.0799
47.15	4.0840
47.27	4.0879
47.40	4.0925
47.53	4.0963
47.67	4.1009
47.80	4.1053
47.94	4.1097
48.08	4.1149
48.20	4.1188
48.34	4.1238
48.47	4.1281
48.60	4.1316
48.74	4.1366
48.88	4.1401
49.00	4.1442
49.14	4.1479
49.27	4.1509
49.40	4.1553
49.54	4.1585
49.67	4.1633
49.80	4.1680
49.93	4.1720
50.07	4.1771
50.20	4.1816
50.34	4.1856
50.47	4.1899
50.60	4.1936
50.74	4.1981
50.87	4.2025
51.00	4.2065
51.13	4.2118
51.27	4.2160
51.40	4.2204
51.54	4.2249
51.67	4.2287
51.80	4.2334
51.93	4.2381
52.07	4.2430
52.20	4.2477
52.33	4.2521
52.47	4.2574
52.60	4.2616
52.73	4.2659
52.87	4.2708
53.00	4.2733
53.13	4.2772
53.27	4.2809
53.40	4.2851
53.53	4.2896
53.67	4.2940
53.80	4.2990
53.93	4.3040
54.07	4.3079
54.20	4.3131
54.33	4.3174
54.47	4.3215
54.60	4.3257
54.73	4.3291
54.87	4.3342
55.00	4.3378
55.13	4.3419
55.26	4.3463
55.40	4.3497
55.52	4.3549
55.67	4.3589
55.80	4.3630
55.93	4.3682
56.07	4.3719
56.20	4.3768
56.33	4.3810
56.46	4.3856
56.60	4.3906
56.73	4.3950
56.86	4.3999
57.00	4.4039
57.13	4.4082
57.26	4.4125
57.40	4.4166
57.53	4.4218
57.66	4.4267
57.80	4.4308
57.93	4.4362
58.06	4.4400
58.19	4.4449
58.33	4.4486
58.46	4.4525
58.59	4.4573
58.73	4.4610
58.86	4.4664
58.99	4.4709
59.13	4.4758
59.26	4.4813
59.40	4.4857
59.53	4.4906
59.66	4.4945
59.80	4.4987
59.93	4.5036
60.06	4.5071
60.19	4.5113
60.33	4.5159
60.45	4.5197
60.59	4.5247
60.73	4.5286
60.86	4.5335
61.00	4.5369
61.13	4.5408
61.25	4.5457
61.39	4.5497
61.52	4.5550
61.66	4.5597
61.79	4.5639
61.93	4.5693
62.06	4.5736
62.19	4.5784
62.33	4.5825
62.45	4.5865
62.59	4.5921
62.73	4.5968
62.85	4.6008
62.99	4.6060
63.13	4.6097
63.26	4.6150
63.39	4.6191
63.52	4.6236
63.66	4.6283
63.79	4.6317
63.92	4.6365
64.05	4.6404
64.19	4.6453
64.32	4.6500
64.45	4.6542
64.58	4.6593
64.72	4.6637
64.85	4.6684
64.99	4.6736
65.13	4.6777
65.25	4.6832
65.39	4.6873
65.52	4.6922
65.65	4.6967
65.79	4.7011
65.92	4.7065
66.05	4.7107
66.19	4.7155
66.33	4.7203
66.45	4.7242
66.59	4.7291
66.72	4.7336
66.86	4.7381
66.99	4.7423
67.13	4.7467
67.25	4.7515
67.39	4.7560
67.52	4.7607
67.65	4.7651
67.79	4.7691
67.92	4.7747
68.05	4.7789
68.19	4.7836
68.33	4.7879
68.46	4.7919
68.58	4.7971
68.72	4.8015
68.85	4.8065
68.99	4.8113
69.12	4.8160
69.25	4.8211
69.39	4.8256
69.53	4.8308
69.65	4.8357
69.79	4.8403
69.92	4.8462
70.05	4.8505
70.18	4.8556
70.32	4.8600
70.45	4.8648
70.59	4.8700
70.72	4.8745
70.86	4.8787
70.98	4.8832
71.12	4.8865
71.25	4.8915
71.39	4.8958
71.51	4.9011
71.65	4.9059
71.78	4.9106
71.92	4.9158
72.05	4.9200
72.18	4.9251
72.32	4.9302
72.45	4.9347
72.58	4.9401
72.72	4.9439
72.85	4.9492
72.98	4.9542
73.12	4.9594
73.25	4.9645
73.39	4.9683
73.52	4.9737
73.65	4.9782
73.79	4.9834
73.92	4.9884
74.06	4.9925
74.19	4.9981
74.32	5.0025
74.46	5.0072
74.59	5.0121
74.72	5.0163
74.85	5.0218
75.00	5.0266
75.12	5.0315
75.25	5.0362
75.39	5.0404
75.52	5.0459
75.65	5.0501
75.79	5.0555
75.92	5.0598
76.05	5.0648
76.19	5.0703
76.32	5.0753
76.46	5.0806
76.59	5.0859
76.73	5.0911
76.86	5.0967
76.99	5.1012
77.12	5.1065
77.26	5.1108
77.39	5.1153
77.53	5.1198
77.65	5.1245
77.79	5.1293
77.92	5.1333
78.06	5.1381
78.19	5.1432
78.33	5.1478
78.45	5.1534
78.59	5.1582
78.73	5.1639
78.86	5.1693
78.99	5.1739
79.13	5.1793
79.25	5.1841
79.39	5.1890
79.52	5.1942
79.66	5.1986
79.79	5.2044
79.92	5.2088
80.05	5.2141
80.19	5.2190
80.32	5.2244
80.45	5.2300
80.59	5.2350
80.72	5.2405
80.86	5.2456
80.99	5.2506
81.12	5.2564
81.25	5.2613
81.38	5.2670
81.52	5.2718
81.65	5.2769
81.78	5.2811
81.92	5.2862
82.05	5.2900
82.18	5.2947
82.32	5.2989
82.45	5.3037
82.58	5.3076
82.71	5.3127
82.85	5.3171
82.98	5.3220
83.11	5.3270
83.25	5.3323
83.38	5.3372
83.51	5.3422
83.64	5.3480
83.78	5.3534
83.92	5.3582
84.04	5.3628
84.17	5.3672
84.31	5.3720
84.45	5.3779
84.58	5.3834
84.71	5.3896
84.84	5.3946
84.98	5.4013
85.11	5.4065
85.24	5.4124
85.38	5.4172
85.51	5.4223
85.64	5.4269
85.78	5.4318
85.91	5.4364
86.04	5.4415
86.17	5.4467
86.31	5.4526
86.44	5.4587
86.57	5.4644
86.70	5.4700
86.84	5.4757
86.97	5.4816
87.10	5.4866
87.24	5.4921
87.37	5.4969
87.50	5.5024
87.63	5.5071
87.77	5.5128
87.90	5.5179
88.03	5.5239
88.16	5.5289
88.30	5.5345
88.43	5.5394
88.57	5.5450
88.70	5.5507
88.83	5.5570
88.97	5.5627
89.09	5.5687
89.23	5.5739
89.36	5.5795
89.50	5.5851
89.63	5.5911
89.76	5.5961
89.89	5.6018
90.03	5.6072
90.15	5.6123
90.29	5.6186
90.42	5.6238
90.55	5.6294
90.69	5.6345
90.82	5.6402
90.95	5.6455
91.09	5.6514
91.22	5.6564
91.36	5.6632
91.49	5.6689
91.63	5.6754
91.75	5.6815
91.88	5.6881
92.02	5.6935
92.15	5.6998
92.28	5.7053
92.42	5.7107
92.55	5.7166
92.68	5.7221
92.82	5.7275
92.95	5.7329
93.08	5.7387
93.22	5.7443
93.35	5.7502
93.48	5.7558
93.62	5.7621
93.75	5.7674
93.88	5.7736
94.01	5.7793
94.15	5.7853
94.28	5.7914
94.41	5.7976
94.55	5.8034
94.68	5.8099
94.81	5.8156
94.94	5.8215
95.08	5.8268
95.22	5.8324
95.34	5.8379
95.48	5.8440
95.61	5.8508
95.74	5.8574
95.88	5.8646
96.01	5.8714
96.14	5.8779
96.28	5.8833
96.41	5.8888
96.54	5.8930
96.67	5.8986
96.81	5.9043
96.94	5.9104
97.08	5.9171
97.21	5.9246
97.34	5.9313
97.48	5.9378
97.61	5.9453
97.74	5.9521
97.88	5.9591
98.00	5.9656
98.14	5.9720
98.28	5.9781
98.41	5.9838
98.54	5.9894
98.67	5.9954
98.81	6.0008
98.94	6.0068
99.07	6.0124
99.20	6.0188
99.34	6.0244
99.48	6.0318
99.60	6.0383
99.73	6.0452
99.87	6.0513
100.00	6.0578
100.14	6.0643
100.28	6.0703
100.40	6.0771
100.54	6.0833
100.68	6.0901
100.80	6.0961
100.94	6.1025
101.07	6.1089
101.20	6.1150
101.33	6.1206
101.47	6.1276
101.61	6.1339
101.74	6.1408
101.88	6.1474
102.00	6.1546
102.14	6.1609
102.27	6.1679
102.40	6.1737
102.53	6.1797
102.67	6.1859
102.80	6.1916
102.94	6.1980
103.07	6.2039
103.20	6.2105
103.34	6.2166
103.47	6.2231
103.60	6.2297
103.74	6.2361
103.87	6.2428
104.00	6.2495
104.13	6.2566
104.26	6.2640
104.40	6.2710
104.53	6.2776
104.66	6.2844
104.80	6.2908
104.93	6.2975
105.06	6.3039
105.20	6.3107
105.33	6.3171
105.47	6.3238
105.60	6.3299
105.73	6.3366
105.87	6.3431
106.00	6.3499
106.13	6.3574
106.26	6.3647
106.40	6.3715
106.53	6.3788
106.66	6.3853
106.79	6.3922
106.93	6.3990
107.05	6.4052
107.20	6.4116
107.33	6.4180
107.46	6.4243
107.60	6.4300
107.73	6.4365
107.86	6.4424
107.99	6.4496
108.13	6.4564
108.26	6.4633
108.39	6.4700
108.53	6.4775
108.66	6.4845
108.79	6.4907
108.92	6.4977
109.06	6.5041
109.19	6.5103
109.33	6.5167
109.45	6.5240
109.59	6.5308
109.73	6.5377
109.85	6.5447
109.99	6.5526
110.13	6.5590
110.26	6.5662
110.39	6.5732
110.53	6.5802
110.65	6.5872
110.79	6.5945
110.93	6.6014
111.06	6.6084
111.19	6.6152
111.33	6.6222
111.46	6.6290
111.59	6.6362
111.73	6.6432
111.86	6.6499
111.99	6.6570
112.13	6.6629
112.25	6.6706
112.39	6.6774
112.53	6.6847
112.66	6.6922
112.79	6.6998
112.92	6.7073
113.06	6.7146
113.19	6.7218
113.33	6.7288
113.45	6.7361
113.59	6.7425
113.73	6.7502
113.86	6.7570
113.99	6.7644
114.12	6.7710
114.25	6.7780
114.39	6.7846
114.52	6.7915
114.66	6.7988
114.79	6.8064
114.92	6.8141
115.05	6.8212
115.19	6.8295
115.32	6.8366
115.46	6.8444
115.59	6.8528
115.72	6.8618
115.85	6.8693
115.99	6.8770
116.12	6.8835
116.25	6.8908
116.39	6.8976
116.52	6.9050
116.65	6.9125
116.78	6.9201
116.92	6.9277
117.05	6.9352
117.18	6.9432
117.32	6.9508
117.45	6.9585
117.58	6.9656
117.72	6.9734
117.85	6.9806
117.98	6.9879
118.12	6.9952
118.25	7.0029
118.39	7.0103
118.52	7.0177
118.65	7.0251
118.79	7.0328
118.92	7.0402
119.05	7.0475
119.18	7.0562
119.32	7.0642
119.45	7.0728
119.58	7.0806
119.72	7.0886
119.85	7.0967
119.98	7.1046
120.12	7.1124
120.25	7.1206
120.38	7.1282
120.52	7.1357
120.65	7.1439
120.78	7.1522
120.91	7.1603
121.05	7.1679
121.19	7.1761
121.32	7.1836
121.45	7.1919
121.59	7.1991
121.72	7.2070
121.85	7.2156
121.98	7.2239
122.12	7.2319
122.25	7.2399
122.38	7.2476
122.52	7.2555
122.65	7.2639
122.78	7.2727
122.92	7.2810
123.05	7.2893
123.18	7.2971
123.32	7.3052
123.45	7.3136
123.58	7.3218
123.71	7.3307
123.85	7.3382
123.98	7.3457
124.12	7.3537
124.25	7.3621
124.38	7.3715
124.51	7.3799
124.65	7.3889
124.78	7.3973
124.91	7.4058
125.05	7.4136
125.18	7.4214
125.31	7.4295
125.45	7.4383
125.58	7.4465
125.71	7.4551
125.85	7.4637
125.98	7.4725
126.11	7.4812
126.25	7.4895
126.38	7.4981
126.51	7.5062
126.65	7.5149
126.78	7.5230
126.90	7.5308
127.04	7.5391
127.18	7.5476
127.31	7.5561
127.44	7.5651
127.58	7.5742
127.71	7.5830
127.84	7.5919
127.98	7.6007
128.10	7.6103
128.25	7.6189
128.38	7.6278
128.51	7.6366
128.64	7.6455
128.78	7.6544
128.91	7.6630
129.05	7.6708
129.18	7.6782
129.31	7.6868
129.44	7.6947
129.57	7.7037
129.71	7.7120
129.84	7.7214
129.97	7.7305
130.11	7.7395
130.24	7.7486
130.38	7.7576
130.51	7.7664
130.65	7.7751
130.78	7.7848
130.91	7.7936
131.05	7.8026
131.18	7.8118
131.31	7.8209
131.44	7.8300
131.57	7.8396
131.71	7.8488
131.84	7.8584
131.97	7.8679
132.11	7.8768
132.25	7.8861
132.38	7.8948
132.51	7.9042
132.64	7.9130
132.78	7.9225
132.91	7.9316
133.04	7.9415
133.18	7.9508
133.31	7.9605
133.44	7.9696
133.57	7.9790
133.71	7.9890
133.84	7.9982
133.97	8.0082
134.11	8.0178
134.23	8.0269
134.38	8.0360
134.51	8.0456
134.64	8.0550
134.78	8.0646
134.91	8.0744
135.04	8.0843
135.17	8.0941
135.30	8.1036
135.44	8.1129
135.57	8.1224
135.70	8.1314
135.84	8.1404
135.97	8.1502
136.10	8.1602
136.24	8.1705
136.38	8.1810
136.50	8.1910
136.63	8.2014
136.77	8.2109
136.91	8.2211
137.04	8.2308
137.18	8.2411
137.31	8.2515
137.44	8.2615
137.58	8.2710
137.71	8.2804
137.84	8.2900
137.97	8.2992
138.10	8.3096
138.24	8.3195
138.37	8.3301
138.51	8.3409
138.64	8.3519
138.78	8.3626
138.91	8.3735
139.04	8.3842
139.18	8.3947
139.31	8.4051
139.44	8.4155
139.58	8.4268
139.71	8.4377
139.85	8.4489
139.98	8.4602
140.11	8.4714
140.25	8.4822
140.38	8.4927
140.51	8.5027
140.64	8.5135
140.78	8.5241
140.91	8.5356
141.04	8.5471
141.18	8.5588
141.31	8.5707
141.44	8.5821
141.58	8.5938
141.71	8.6050
141.85	8.6167
141.98	8.6288
142.11	8.6404
142.24	8.6526
142.38	8.6645
142.51	8.6769
142.65	8.6895
142.78	8.7021
142.91	8.7154
143.05	8.7284
143.18	8.7412
143.31	8.7542
143.44	8.7674
143.58	8.7809
143.71	8.7944
143.85	8.8079
143.98	8.8222
144.11	8.8360
144.25	8.8503
144.38	8.8643
144.51	8.8790
144.65	8.8927
144.78	8.9074
144.91	8.9213
145.05	8.9354
145.18	8.9493
145.31	8.9628
145.44	8.9756
145.58	8.9867
145.71	8.9975
145.84	9.0089
145.97	9.0214
146.11	9.0343
146.24	9.0467
146.37	9.0585
146.50	9.0697
146.64	9.0803
146.77	9.0911
146.90	9.1004
147.03	9.1100
147.17	9.1192
147.30	9.1283
147.44	9.1370
147.57	9.1460
147.70	9.1537
147.84	9.1620
147.97	9.1699
148.10	9.1776
148.23	9.1855
148.37	9.1940
148.50	9.2023
148.64	9.2111
148.77	9.2204
148.90	9.2305
149.03	9.2413
149.17	9.2530
149.30	9.2649
149.43	9.2777
149.56	9.2911
149.69	9.3050
149.83	9.3196
149.96	9.3348
150.10	9.3508
150.23	9.3677
150.36	9.3851
150.49	9.4032
150.63	9.4219
150.76	9.4402
150.89	9.4592
151.03	9.4782
151.16	9.4971
151.29	9.5165
151.43	9.5356
151.56	9.5549
151.69	9.5742
151.83	9.5943
151.95	9.6133
152.09	9.6328
152.22	9.6521
152.35	9.6708
152.49	9.6897
152.62	9.7087
152.75	9.7272
152.89	9.7463
153.02	9.7660
153.15	9.7848
153.28	9.8035
153.42	9.8218
153.55	9.8398
153.69	9.8574
153.82	9.8750
153.95	9.8922
154.08	9.9096
154.21	9.9270
154.35	9.9444
154.48	9.9619
154.61	9.9798
154.75	9.9980
154.88	10.0167
155.01	10.0354
155.14	10.0543
155.28	10.0730
155.41	10.0922
155.54	10.1119
155.68	10.1322
155.81	10.1536
155.94	10.1750
156.08	10.1977
156.21	10.2206
156.34	10.2433
156.47	10.2670
156.61	10.2908
156.75	10.3151
156.88	10.3400
157.01	10.3656
157.14	10.3921
157.28	10.4189
157.41	10.4461
157.54	10.4744
157.67	10.5031
157.81	10.5327
157.94	10.5629
158.07	10.5937
158.21	10.6255
158.34	10.6589
158.47	10.6925
158.60	10.7266
158.74	10.7616
158.87	10.7973
159.01	10.8329
159.14	10.8695
159.27	10.9068
159.41	10.9444
159.54	10.9832
159.67	11.0234
159.80	11.0643
159.94	11.1055
160.07	11.1474
160.20	11.1897
160.34	11.2329
160.47	11.2755
160.60	11.3181
160.73	11.3603
160.87	11.4026
161.00	11.4433
161.13	11.4831
161.27	11.5217
161.40	11.5594
161.53	11.5981
161.67	11.6368
161.80	11.6774
161.93	11.7196
162.06	11.7627
162.19	11.8070
162.33	11.8530
162.46	11.8983
162.60	11.9430
162.73	11.9875
162.86	12.0310
162.99	12.0735
163.13	12.1163
163.26	12.1581
163.39	12.1996
163.53	12.2412
163.66	12.2824
163.79	12.3234
163.93	12.3635
164.06	12.4027
164.19	12.4419
164.33	12.4810
164.46	12.5198
164.59	12.5582
164.72	12.5965
164.85	12.6344
164.99	12.6724
165.12	12.7108
165.25	12.7496
165.39	12.7873
165.53	12.8250
165.65	12.8623
165.79	12.8999
165.92	12.9374
166.05	12.9743
166.19	13.0114
166.32	13.0462
166.44	13.0788
166.59	13.1110
166.72	13.1425
166.85	13.1724
166.99	13.2012
167.12	13.2285
167.25	13.2544
167.38	13.2798
167.52	13.3040
167.65	13.3262
167.79	13.3459
167.92	13.3636
168.05	13.3783
168.18	13.3899
168.32	13.3988
168.45	13.4041
168.59	13.4043
168.72	13.3995
168.85	13.3892
168.98	13.3739
169.12	13.3525
169.25	13.3245
169.39	13.2895
169.52	13.2465
169.65	13.1947
169.78	13.1331
169.92	13.0620
170.05	12.9807
170.18	12.8890
170.32	12.7870
170.45	12.6747
170.60	12.5521
170.72	12.4196
170.85	12.2777
170.99	12.1282
171.12	11.9732
171.25	11.8106
171.38	11.6368
171.52	11.4585
171.65	11.2856
171.78	11.1253
171.92	10.9807
172.05	10.8535
172.18	10.7435
172.32	10.6498
172.45	10.5717
172.58	10.5062
172.72	10.4534
172.85	10.4112
172.98	10.3794
173.12	10.3548
173.25	10.3361
173.38	10.3221
173.51	10.3130
173.65	10.3076
173.78	10.3046
173.91	10.3050
174.05	10.3074
174.18	10.3121
174.32	10.3179
174.44	10.3242
174.58	10.3319
174.71	10.3400
174.85	10.3483
174.98	10.3575
175.11	10.3673
175.25	10.3764
175.38	10.3861
175.51	10.3960
175.65	10.4064
175.78	10.4174
175.91	10.4279
176.05	10.4394
176.18	10.4508
176.31	10.4632
176.44	10.4745
176.58	10.4855
176.71	10.4965
176.84	10.5074
176.97	10.5179
177.11	10.5289
177.24	10.5403
177.38	10.5513
177.51	10.5623
177.65	10.5736
177.78	10.5854
177.91	10.5972
178.04	10.6076
178.18	10.6175
178.30	10.6277
178.44	10.6384
178.58	10.6495
178.71	10.6607
178.84	10.6712
178.98	10.6816
179.11	10.6932
179.24	10.7045
179.38	10.7156
179.50	10.7268
179.64	10.7380
179.78	10.7490
179.91	10.7601
180.04	10.7710
180.18	10.7814
180.30	10.7925
180.44	10.8028
180.58	10.8134
180.70	10.8246
180.84	10.8357
180.97	10.8462
181.11	10.8564
181.24	10.8667
181.37	10.8769
181.50	10.8879
181.63	10.8990
181.77	10.9106
181.90	10.9226
182.03	10.9339
182.17	10.9445
182.30	10.9556
182.43	10.9660
182.56	10.9763
182.70	10.9868
182.83	10.9971
182.97	11.0072
183.10	11.0179
183.23	11.0291
183.37	11.0392
183.50	11.0497
183.63	11.0602
183.76	11.0703
183.89	11.0804
184.03	11.0907
184.16	11.1010
184.30	11.1115
184.43	11.1218
184.57	11.1321
184.69	11.1431
184.83	11.1544
184.97	11.1652
185.10	11.1761
185.23	11.1865
185.37	11.1968
185.50	11.2073
185.63	11.2175
185.76	11.2278
185.90	11.2378
186.03	11.2486
186.17	11.2595
186.30	11.2705
186.43	11.2817
186.57	11.2925
186.70	11.3037
186.83	11.3152
186.96	11.3269
187.10	11.3385
187.23	11.3496
187.37	11.3601
187.50	11.3704
187.63	11.3808
187.77	11.3909
187.90	11.4009
188.03	11.4109
188.17	11.4207
188.30	11.4309
188.43	11.4412
188.56	11.4525
188.70	11.4636
188.83	11.4748
188.96	11.4858
189.10	11.4965
189.23	11.5076
189.37	11.5194
189.50	11.5310
189.63	11.5422
189.76	11.5535
189.90	11.5641
190.03	11.5751
190.16	11.5863
190.30	11.5971
190.43	11.6073
190.56	11.6182
190.69	11.6283
190.83	11.6385
190.96	11.6492
191.10	11.6596
191.23	11.6708
191.36	11.6823
191.50	11.6938
191.63	11.7057
191.76	11.7176
191.89	11.7290
192.03	11.7399
192.16	11.7505
192.30	11.7612
192.43	11.7721
192.56	11.7829
192.69	11.7932
192.83	11.8039
192.96	11.8152
193.10	11.8261
193.23	11.8366
193.36	11.8477
193.50	11.8593
193.63	11.8701
193.76	11.8814
193.90	11.8927
194.03	11.9037
194.16	11.9149
194.30	11.9270
194.43	11.9380
194.56	11.9489
194.69	11.9602
194.83	11.9709
194.96	11.9817
195.10	11.9923
195.23	12.0034
195.36	12.0151
195.50	12.0266
195.63	12.0384
195.76	12.0502
195.90	12.0615
196.03	12.0725
196.16	12.0834
196.30	12.0949
196.43	12.1068
196.56	12.1184
196.69	12.1306
196.83	12.1424
196.96	12.1537
197.10	12.1648
197.23	12.1766
197.36	12.1887
197.50	12.2002
197.63	12.2115
197.76	12.2235
197.90	12.2355
198.03	12.2476
198.16	12.2599
198.30	12.2727
198.43	12.2861
198.56	12.2990
198.69	12.3099
198.83	12.3194
198.96	12.3271
199.10	12.3332
199.23	12.3394
199.36	12.3446
199.50	12.3513
199.63	12.3590
199.76	12.3671
199.89	12.3749