File: 论文/tga txt new/10%10mm.txt
Filename:	D:\TGAdata\„∆√ŒœÈ\Ã∆–°º™\10%10mm.t6d

Temperature (°„C)	Weight % (%)
28.91	100.003
28.91	100.007
28.91	100.023
28.91	100.019
28.91	100.026
28.96	100.042
29.03	100.036
29.15	100.039
29.29	100.078
29.48	100.081
29.75	100.084
30.07	100.107
30.44	100.100
30.84	100.110
31.28	100.110
31.77	100.107
32.26	100.113
32.78	100.116
33.32	100.110
33.88	100.110
34.45	100.110
35.03	100.103
35.62	100.116
36.22	100.123
36.82	100.110
37.44	100.120
38.06	100.123
38.69	100.103
39.32	100.107
39.96	100.113
40.60	100.103
41.25	100.107
41.90	100.116
42.55	100.120
43.20	100.116
43.86	100.120
44.52	100.120
45.18	100.113
45.84	100.110
46.50	100.110
47.17	100.120
47.83	100.120
48.50	100.120
49.18	100.123
49.85	100.113
50.52	100.113
51.19	100.113
51.87	100.103
52.55	100.103
53.22	100.113
53.90	100.113
54.59	100.110
55.27	100.110
55.96	100.103
56.64	100.097
57.32	100.103
58.00	100.100
58.67	100.094
59.35	100.094
60.02	100.097
60.70	100.094
61.39	100.094
62.07	100.100
62.76	100.087
63.45	100.087
64.14	100.090
64.83	100.074
65.52	100.074
66.21	100.081
66.89	100.074
67.58	100.081
68.26	100.074
68.95	100.071
69.64	100.068
70.33	100.068
71.01	100.061
71.70	100.068
72.38	100.058
73.06	100.058
73.74	100.061
74.43	100.055
75.11	100.055
75.80	100.061
76.48	100.058
77.16	100.048
77.85	100.048
78.53	100.048
79.21	100.048
79.89	100.045
80.57	100.045
81.25	100.032
81.93	100.045
82.61	100.048
83.29	100.042
83.97	100.036
84.66	100.029
85.34	100.029
86.03	100.013
86.72	100.013
87.40	100.010
88.08	100.010
88.77	100.013
89.45	100.010
90.13	100.010
90.81	100.013
91.50	100.010
92.18	100.000
92.86	99.994
93.55	100.000
94.23	100.007
94.92	100.010
95.60	100.003
96.29	100.000
96.97	99.997
97.66	100.003
98.34	99.990
99.03	99.987
99.71	99.987
100.39	99.981
101.07	99.984
101.76	99.987
102.45	99.984
103.13	99.987
103.82	99.990
104.50	99.987
105.19	99.981
105.87	99.981
106.55	99.977
107.22	99.974
107.88	99.964
108.55	99.961
109.21	99.968
109.87	99.958
110.52	99.968
111.18	99.968
111.84	99.971
112.49	99.955
113.14	99.952
113.79	99.948
114.44	99.952
115.09	99.945
115.73	99.935
116.38	99.929
117.02	99.935
117.66	99.935
118.30	99.932
118.94	99.919
119.58	99.919
120.22	99.919
120.86	99.922
121.50	99.922
122.14	99.919
122.79	99.919
123.44	99.922
124.10	99.910
124.76	99.906
125.41	99.893
126.06	99.897
126.72	99.887
127.38	99.887
128.03	99.890
128.68	99.881
129.33	99.881
129.97	99.887
130.63	99.890
131.28	99.900
131.93	99.900
132.59	99.890
133.24	99.887
133.90	99.887
134.55	99.884
135.20	99.881
135.85	99.868
136.50	99.864
137.15	99.864
137.80	99.868
138.45	99.864
139.09	99.861
139.74	99.861
140.38	99.858
141.03	99.848
141.67	99.845
142.31	99.851
142.96	99.848
143.60	99.851
144.25	99.848
144.89	99.832
145.53	99.826
146.18	99.829
146.82	99.842
147.47	99.845
148.11	99.838
148.76	99.842
149.40	99.842
150.04	99.829
150.68	99.819
151.32	99.816
151.96	99.813
152.60	99.809
153.24	99.813
153.88	99.806
154.53	99.800
155.17	99.803
155.82	99.803
156.47	99.813
157.12	99.813
157.76	99.800
158.40	99.803
159.04	99.803
159.68	99.809
160.32	99.806
160.95	99.809
161.59	99.800
162.23	99.797
162.87	99.787
163.51	99.787
164.16	99.784
164.81	99.774
165.45	99.767
166.08	99.771
166.72	99.780
167.35	99.767
167.99	99.774
168.63	99.771
169.27	99.767
169.91	99.771
170.55	99.761
171.19	99.751
171.83	99.755
172.48	99.755
173.12	99.742
173.76	99.742
174.39	99.745
175.04	99.745
175.69	99.745
176.33	99.751
176.98	99.745
177.63	99.748
178.29	99.742
178.95	99.738
179.61	99.735
180.27	99.742
180.92	99.738
181.58	99.732
182.24	99.725
182.90	99.725
183.56	99.725
184.23	99.722
184.90	99.712
185.56	99.716
186.22	99.719
186.88	99.716
187.55	99.719
188.21	99.709
188.87	99.700
189.53	99.709
190.19	99.703
190.85	99.703
191.51	99.700
192.17	99.690
192.83	99.687
193.50	99.700
194.16	99.703
194.82	99.709
195.48	99.700
196.14	99.700
196.80	99.712
197.46	99.716
198.12	99.703
198.78	99.690
199.44	99.690
200.10	99.690
200.77	99.700
201.43	99.709
202.09	99.709
202.75	99.703
203.41	99.690
204.07	99.693
204.72	99.696
205.39	99.693
206.05	99.696
206.71	99.693
207.36	99.700
208.02	99.690
208.68	99.690
209.33	99.687
209.99	99.687
210.65	99.677
211.31	99.690
211.98	99.693
212.65	99.680
213.32	99.680
213.98	99.680
214.65	99.677
215.31	99.677
215.98	99.674
216.65	99.671
217.31	99.674
217.97	99.683
218.63	99.690
219.29	99.687
219.96	99.671
220.63	99.671
221.30	99.680
221.96	99.664
222.62	99.658
223.28	99.661
223.93	99.661
224.59	99.667
225.25	99.671
225.91	99.664
226.57	99.667
227.23	99.664
227.89	99.651
228.55	99.651
229.20	99.651
229.86	99.651
230.51	99.635
231.17	99.635
231.83	99.638
232.49	99.635
233.15	99.638
233.82	99.635
234.49	99.638
235.16	99.638
235.83	99.635
236.50	99.638
237.16	99.638
237.83	99.632
238.49	99.619
239.15	99.619
239.82	99.616
240.47	99.616
241.13	99.625
241.79	99.622
242.45	99.619
243.11	99.616
243.77	99.609
244.43	99.603
245.10	99.603
245.77	99.599
246.43	99.606
247.11	99.612
247.78	99.606
248.45	99.599
249.12	99.599
249.79	99.590
250.45	99.590
251.11	99.590
251.77	99.590
252.43	99.586
253.09	99.577
253.75	99.583
254.41	99.577
255.08	99.570
255.75	99.561
256.41	99.557
257.07	99.557
257.72	99.554
258.37	99.551
259.01	99.545
259.66	99.545
260.31	99.538
260.96	99.535
261.60	99.522
262.25	99.535
262.90	99.545
263.55	99.532
264.21	99.516
264.86	99.519
265.51	99.519
266.16	99.506
266.81	99.503
267.45	99.490
268.10	99.480
268.76	99.470
269.41	99.470
270.06	99.470
270.72	99.460
271.36	99.460
272.01	99.448
272.65	99.438
273.29	99.428
273.94	99.425
274.59	99.412
275.24	99.419
275.88	99.402
276.53	99.396
277.17	99.383
277.82	99.377
278.46	99.367
279.09	99.360
279.73	99.347
280.37	99.341
281.02	99.325
281.67	99.315
282.32	99.315
282.96	99.305
283.61	99.289
284.26	99.276
284.90	99.273
285.55	99.270
286.20	99.264
286.85	99.247
287.49	99.247
288.13	99.234
288.78	99.221
289.41	99.221
290.05	99.212
290.69	99.199
291.33	99.186
291.97	99.176
292.62	99.167
293.26	99.157
293.91	99.150
294.55	99.138
295.20	99.125
295.85	99.115
296.50	99.105
297.15	99.089
297.80	99.073
298.45	99.063
299.10	99.057
299.76	99.041
300.42	99.018
301.07	99.005
301.74	99.002
302.41	98.989
303.08	98.973
303.75	98.966
304.42	98.947
305.09	98.944
305.76	98.934
306.43	98.918
307.10	98.911
307.77	98.908
308.43	98.882
309.10	98.866
309.78	98.859
310.45	98.847
311.12	98.818
311.79	98.808
312.46	98.785
313.13	98.779
313.81	98.753
314.49	98.733
315.17	98.711
315.86	98.685
316.54	98.675
317.21	98.653
317.88	98.637
318.56	98.617
319.23	98.595
319.91	98.553
320.58	98.543
321.25	98.527
321.92	98.511
322.59	98.488
323.26	98.446
323.93	98.423
324.60	98.391
325.26	98.355
325.93	98.326
326.60	98.304
327.26	98.265
327.92	98.236
328.59	98.210
329.25	98.168
329.92	98.126
330.59	98.094
331.26	98.049
331.94	98.016
332.62	97.968
333.29	97.926
333.96	97.884
334.63	97.835
335.30	97.787
335.97	97.758
336.64	97.713
337.30	97.658
337.97	97.603
338.64	97.545
339.31	97.490
339.98	97.425
340.65	97.364
341.32	97.299
342.00	97.222
342.68	97.150
343.35	97.086
344.02	97.011
344.69	96.931
345.35	96.850
346.02	96.766
346.69	96.698
347.37	96.621
348.05	96.537
348.73	96.446
349.40	96.359
350.08	96.265
350.76	96.168
351.44	96.075
352.12	95.974
352.80	95.874
353.48	95.761
354.15	95.661
354.82	95.551
355.50	95.435
356.17	95.319
356.85	95.196
357.53	95.067
358.21	94.937
358.88	94.798
359.55	94.666
360.22	94.524
360.89	94.385
361.57	94.246
362.25	94.097
362.92	93.936
363.59	93.787
364.26	93.632
364.93	93.474
365.60	93.309
366.28	93.144
366.94	92.967
367.61	92.789
368.27	92.614
368.94	92.427
369.60	92.249
370.27	92.065
370.93	91.875
371.58	91.671
372.24	91.474
372.90	91.277
373.56	91.073
374.22	90.880
374.89	90.673
375.56	90.456
376.22	90.237
376.88	90.020
377.55	89.797
378.21	89.581
378.87	89.358
379.53	89.138
380.18	88.918
380.84	88.686
381.49	88.456
382.15	88.214
382.81	87.962
383.46	87.716
384.12	87.471
384.78	87.222
385.44	86.970
386.10	86.708
386.76	86.450
387.42	86.179
388.08	85.897
388.74	85.613
389.40	85.329
390.07	85.035
390.73	84.734
391.39	84.427
392.05	84.117
392.70	83.801
393.36	83.475
394.03	83.129
394.69	82.786
395.35	82.434
396.01	82.062
396.68	81.704
397.34	81.339
398.01	80.945
398.68	80.547
399.34	80.137
400.00	79.730
400.67	79.316
401.33	78.880
401.99	78.444
402.66	77.992
403.33	77.533
404.00	77.074
404.66	76.599
405.31	76.108
405.97	75.617
406.63	75.103
407.29	74.599
407.95	74.076
408.60	73.559
409.26	73.013
409.92	72.467
410.57	71.908
411.23	71.352
411.89	70.787
412.55	70.196
413.21	69.598
413.87	69.000
414.54	68.399
415.20	67.786
415.86	67.159
416.52	66.516
417.18	65.857
417.84	65.208
418.50	64.535
419.15	63.867
419.81	63.178
420.47	62.477
421.12	61.763
421.78	61.040
422.43	60.316
423.09	59.570
423.74	58.827
424.39	58.067
425.06	57.305
425.70	56.513
426.36	55.715
426.99	54.911
427.64	54.103
428.30	53.276
428.98	52.439
429.65	51.596
430.32	50.733
430.98	49.887
431.63	49.024
432.30	48.142
432.96	47.260
433.62	46.362
434.28	45.457
434.95	44.550
435.61	43.629
436.27	42.708
436.93	41.794
437.59	40.860
438.25	39.926
438.90	38.989
439.55	38.069
440.20	37.145
440.87	36.217
441.55	35.293
442.21	34.376
442.88	33.448
443.54	32.537
444.20	31.630
444.87	30.741
445.53	29.843
446.20	28.951
446.86	28.066
447.54	27.207
448.20	26.325
448.87	25.442
449.54	24.586
450.21	23.737
450.88	22.890
451.54	22.060
452.21	21.242
452.88	20.428
453.56	19.656
454.23	18.874
454.90	18.105
455.57	17.378
456.25	16.655
456.93	15.954
457.60	15.285
458.28	14.623
458.97	14.012
459.65	13.414
460.32	12.836
461.00	12.296
461.68	11.757
462.36	11.269
463.05	10.797
463.74	10.348
464.42	9.938
465.10	9.560
465.78	9.188
466.46	8.833
467.13	8.513
467.81	8.203
468.50	7.912
469.19	7.644
469.87	7.382
470.56	7.124
471.25	6.891
471.92	6.675
472.60	6.462
473.28	6.252
473.96	6.061
474.63	5.870
475.31	5.696
475.99	5.531
476.66	5.370
477.33	5.214
478.00	5.079
478.68	4.946
479.35	4.820
480.04	4.701
480.72	4.584
481.40	4.474
482.09	4.378
482.77	4.294
483.44	4.229
484.11	4.164
484.78	4.093
485.45	4.051
486.13	4.022
486.80	3.990
487.46	3.958
488.12	3.941
488.79	3.919
489.45	3.912
490.12	3.909
490.78	3.906
491.45	3.900
492.12	3.880
492.79	3.880
493.47	3.880
494.14	3.867
494.81	3.854
495.48	3.848
496.15	3.844
496.82	3.838
497.50	3.832
498.17	3.819
498.84	3.806
499.51	3.799
500.19	3.783
500.86	3.783
501.54	3.774
502.21	3.764
502.88	3.751
503.56	3.738
504.23	3.712
504.92	3.693
505.60	3.673
506.28	3.667
506.97	3.670
507.65	3.667
508.33	3.654
509.00	3.654
509.67	3.635
510.33	3.625
510.99	3.612
511.64	3.599
512.29	3.589
512.95	3.586
513.61	3.573
514.27	3.576
514.94	3.551
515.60	3.538
516.27	3.518
516.94	3.522
517.61	3.509
518.28	3.496
518.95	3.479
519.62	3.460
520.29	3.444
520.94	3.444
521.60	3.421
522.27	3.412
522.93	3.399
523.59	3.383
524.26	3.379
524.92	3.373
525.59	3.366
526.25	3.347
526.91	3.315
527.57	3.292
528.21	3.282
528.85	3.266
529.50	3.257
530.16	3.234
530.82	3.221
531.49	3.195
532.16	3.182
532.83	3.160
533.50	3.156
534.17	3.144
534.83	3.144
535.50	3.147
536.16	3.118
536.83	3.095
537.49	3.082
538.15	3.066
538.82	3.056
539.49	3.037
540.16	3.021
540.82	3.001
541.49	2.992
542.16	2.969
542.82	2.966
543.50	2.940
544.17	2.933
544.83	2.921
545.49	2.908
546.15	2.895
546.82	2.866
547.49	2.843
548.16	2.843
548.85	2.824
549.53	2.811
550.21	2.795
550.89	2.778
551.56	2.756
552.23	2.746
552.89	2.730
553.54	2.717
554.19	2.694
554.85	2.694
555.53	2.688
556.22	2.659
556.89	2.656
557.55	2.646
558.21	2.636
558.86	2.623
559.52	2.617
560.19	2.597
560.87	2.588
561.55	2.565
562.22	2.552
562.88	2.526
563.55	2.504
564.24	2.491
564.93	2.478
565.61	2.462
566.27	2.462
566.93	2.452
567.59	2.436
568.26	2.420
568.93	2.407
569.62	2.400
570.32	2.387
571.00	2.374
571.68	2.355
572.35	2.342
573.01	2.323
573.67	2.316
574.33	2.304
574.99	2.291
575.66	2.271
576.33	2.258
576.99	2.252
577.64	2.239
578.30	2.223
578.98	2.203
579.65	2.187
580.34	2.184
581.03	2.165
581.71	2.152
582.40	2.129
583.10	2.110
583.79	2.106
584.48	2.093
585.16	2.090
585.84	2.074
586.53	2.055
587.22	2.039
587.91	2.013
588.26	2.003