File: 论文/tga txt new/10%5mm.txt
Filename:	D:\TGAdata\„∆√ŒœÈ\Ã∆–°º™\10%5mm.t6d

Temperature (°„C)	Weight % (%)
28.12	100.021
28.12	100.010
28.12	100.000
28.13	100.035
28.17	100.035
28.25	100.024
28.37	100.035
28.52	100.035
28.72	100.042
28.98	100.055
29.31	100.055
29.68	100.063
30.09	100.080
30.54	100.080
31.01	100.073
31.51	100.087
32.03	100.080
32.57	100.090
33.13	100.097
33.70	100.097
34.28	100.104
34.87	100.118
35.48	100.114
36.09	100.118
36.70	100.121
37.32	100.114
37.95	100.118
38.58	100.125
39.22	100.135
39.86	100.139
40.51	100.132
41.16	100.132
41.82	100.135
42.47	100.139
43.13	100.135
43.79	100.142
44.45	100.149
45.11	100.142
45.78	100.153
46.44	100.156
47.11	100.160
47.78	100.163
48.45	100.160
49.12	100.163
49.80	100.160
50.47	100.153
51.15	100.160
51.82	100.156
52.49	100.149
53.17	100.163
53.85	100.170
54.53	100.170
55.21	100.173
55.89	100.170
56.57	100.160
57.26	100.160
57.94	100.166
58.62	100.170
59.31	100.166
59.99	100.160
60.68	100.166
61.36	100.163
62.04	100.166
62.73	100.163
63.41	100.153
64.09	100.146
64.77	100.142
65.45	100.142
66.14	100.132
66.83	100.139
67.51	100.146
68.20	100.146
68.88	100.132
69.57	100.146
70.26	100.146
70.94	100.139
71.63	100.125
72.31	100.121
73.00	100.125
73.69	100.125
74.37	100.118
75.06	100.114
75.74	100.125
76.43	100.139
77.11	100.125
77.79	100.118
78.48	100.118
79.16	100.108
79.84	100.118
80.53	100.121
81.22	100.125
81.89	100.121
82.56	100.118
83.23	100.114
83.91	100.121
84.60	100.121
85.28	100.114
85.96	100.118
86.64	100.104
87.30	100.118
87.99	100.121
88.67	100.114
89.35	100.111
90.04	100.114
90.73	100.111
91.41	100.118
92.09	100.111
92.77	100.097
93.44	100.080
94.12	100.076
94.80	100.076
95.48	100.080
96.17	100.083
96.86	100.083
97.54	100.083
98.23	100.100
98.92	100.108
99.61	100.097
100.30	100.094
100.98	100.087
101.66	100.083
102.34	100.076
103.02	100.066
103.70	100.069
104.37	100.076
105.05	100.080
105.73	100.087
106.40	100.083
107.07	100.069
107.73	100.063
108.39	100.069
109.05	100.080
109.71	100.087
110.36	100.076
111.02	100.066
111.67	100.063
112.32	100.063
112.98	100.069
113.63	100.063
114.28	100.063
114.93	100.059
115.57	100.059
116.22	100.052
116.86	100.059
117.51	100.059
118.16	100.063
118.80	100.066
119.44	100.083
120.08	100.063
120.73	100.059
121.37	100.049
122.01	100.052
122.66	100.049
123.30	100.049
123.96	100.045
124.62	100.049
125.28	100.049
125.94	100.042
126.59	100.038
127.24	100.035
127.90	100.028
128.56	100.028
129.21	100.028
129.87	100.028
130.52	100.035
131.18	100.031
131.83	100.028
132.48	100.024
133.13	100.024
133.79	100.024
134.44	100.021
135.10	100.028
135.75	100.024
136.40	100.021
137.05	100.014
137.70	100.010
138.35	100.000
139.01	100.007
139.66	100.010
140.32	100.000
140.97	100.003
141.62	99.997
142.26	99.990
142.91	99.986
143.56	100.000
144.20	100.000
144.84	100.003
145.49	100.003
146.13	100.000
146.78	100.000
147.43	99.993
148.07	99.997
148.71	99.983
149.35	99.976
150.00	99.979
150.65	99.986
151.29	99.986
151.93	99.979
152.58	99.976
153.22	99.976
153.87	99.976
154.51	99.976
155.16	99.969
155.80	99.965
156.44	99.965
157.08	99.976
157.72	99.965
158.37	99.969
159.01	99.955
159.65	99.955
160.29	99.955
160.93	99.955
161.57	99.969
162.21	99.958
162.85	99.948
163.49	99.948
164.13	99.955
164.77	99.955
165.41	99.941
166.06	99.945
166.70	99.948
167.34	99.937
167.98	99.927
168.62	99.931
169.26	99.927
169.90	99.934
170.54	99.934
171.18	99.945
171.82	99.945
172.45	99.934
173.10	99.934
173.75	99.920
174.40	99.924
175.05	99.924
175.69	99.924
176.34	99.917
176.98	99.917
177.63	99.910
178.29	99.910
178.94	99.910
179.61	99.910
180.26	99.910
180.92	99.903
181.58	99.892
182.25	99.885
182.91	99.885
183.58	99.889
184.24	99.882
184.91	99.879
185.57	99.885
186.24	99.882
186.90	99.879
187.56	99.882
188.22	99.882
188.88	99.879
189.54	99.879
190.20	99.879
190.86	99.875
191.52	99.872
192.18	99.872
192.84	99.865
193.49	99.854
194.16	99.868
194.81	99.858
195.47	99.865
196.13	99.868
196.79	99.861
197.44	99.858
198.10	99.851
198.76	99.847
199.41	99.844
200.07	99.840
200.74	99.840
201.40	99.847
202.06	99.840
202.72	99.840
203.37	99.840
204.03	99.834
204.68	99.840
205.34	99.844
206.00	99.837
206.65	99.844
207.31	99.844
207.97	99.830
208.64	99.827
209.30	99.823
209.97	99.820
210.62	99.816
211.29	99.809
211.94	99.806
212.60	99.806
213.26	99.806
213.92	99.802
214.59	99.806
215.25	99.809
215.91	99.806
216.57	99.802
217.23	99.806
217.90	99.809
218.57	99.802
219.23	99.802
219.90	99.809
220.56	99.802
221.22	99.802
221.88	99.792
222.54	99.788
223.20	99.785
223.85	99.795
224.51	99.792
225.17	99.795
225.82	99.795
226.47	99.788
227.13	99.778
227.78	99.774
228.44	99.774
229.10	99.771
229.76	99.761
230.41	99.764
231.08	99.768
231.74	99.771
232.40	99.771
233.06	99.778
233.72	99.764
234.37	99.761
235.03	99.754
235.69	99.750
236.35	99.754
237.01	99.757
237.68	99.757
238.33	99.754
239.00	99.754
239.65	99.747
240.31	99.743
240.97	99.743
241.63	99.736
242.29	99.736
242.96	99.736
243.62	99.722
244.28	99.719
244.94	99.726
245.61	99.726
246.27	99.722
246.94	99.733
247.60	99.733
248.26	99.719
248.93	99.719
249.60	99.722
250.26	99.719
250.93	99.702
251.60	99.702
252.27	99.705
252.94	99.691
253.61	99.688
254.28	99.677
254.94	99.681
255.61	99.674
256.27	99.670
256.94	99.667
257.60	99.664
258.25	99.670
258.90	99.670
259.56	99.656
260.21	99.656
260.85	99.646
261.50	99.646
262.14	99.646
262.78	99.639
263.43	99.629
264.07	99.622
264.72	99.625
265.36	99.618
266.01	99.622
266.66	99.622
267.31	99.611
267.95	99.608
268.60	99.605
269.25	99.594
269.90	99.598
270.56	99.587
271.21	99.577
271.86	99.573
272.51	99.563
273.15	99.559
273.80	99.563
274.45	99.556
275.10	99.553
275.74	99.532
276.39	99.525
277.03	99.521
277.67	99.514
278.31	99.507
278.95	99.497
279.59	99.487
280.23	99.473
280.87	99.466
281.52	99.455
282.16	99.442
282.81	99.435
283.45	99.435
284.09	99.421
284.73	99.414
285.38	99.400
286.04	99.390
286.69	99.382
287.33	99.372
287.98	99.355
288.63	99.351
289.28	99.344
289.92	99.337
290.57	99.341
291.21	99.337
291.84	99.330
292.48	99.306
293.13	99.292
293.78	99.282
294.43	99.268
295.08	99.258
295.72	99.258
296.37	99.244
297.02	99.237
297.67	99.219
298.32	99.216
298.97	99.206
299.62	99.192
300.27	99.174
300.93	99.167
301.59	99.161
302.25	99.154
302.91	99.136
303.59	99.115
304.26	99.098
304.93	99.088
305.60	99.077
306.27	99.067
306.94	99.056
307.60	99.043
308.26	99.025
308.93	99.022
309.59	99.011
310.26	98.994
310.94	98.977
311.61	98.956
312.27	98.938
312.94	98.925
313.61	98.900
314.28	98.876
314.95	98.859
315.62	98.845
316.29	98.841
316.96	98.821
317.63	98.789
318.30	98.779
318.97	98.762
319.64	98.737
320.31	98.717
320.97	98.692
321.64	98.675
322.31	98.644
322.98	98.626
323.64	98.609
324.31	98.588
324.98	98.567
325.65	98.543
326.31	98.508
326.98	98.477
327.64	98.453
328.31	98.418
328.97	98.387
329.63	98.356
330.29	98.328
330.96	98.293
331.63	98.252
332.29	98.217
332.96	98.193
333.62	98.141
334.28	98.085
334.95	98.037
335.63	97.995
336.29	97.950
336.96	97.898
337.62	97.842
338.30	97.794
338.97	97.738
339.64	97.683
340.31	97.627
340.98	97.561
341.65	97.492
342.32	97.433
343.00	97.367
343.67	97.305
344.34	97.235
345.01	97.155
345.68	97.086
346.35	97.017
347.01	96.937
347.69	96.850
348.36	96.777
349.04	96.694
349.71	96.604
350.38	96.521
351.06	96.430
351.73	96.316
352.41	96.209
353.08	96.115
353.76	96.018
354.43	95.917
355.11	95.799
355.79	95.688
356.47	95.567
357.14	95.438
357.83	95.314
358.50	95.178
359.18	95.050
359.86	94.915
360.53	94.783
361.20	94.647
361.87	94.495
362.55	94.342
363.22	94.190
363.88	94.030
364.55	93.867
365.22	93.701
365.88	93.531
366.55	93.368
367.21	93.184
367.86	93.007
368.52	92.819
369.17	92.629
369.83	92.441
370.49	92.247
371.14	92.053
371.80	91.859
372.45	91.657
373.12	91.442
373.77	91.234
374.43	91.023
375.08	90.811
375.74	90.596
376.40	90.381
377.06	90.173
377.72	89.954
378.38	89.736
379.04	89.507
379.69	89.274
380.35	89.038
381.00	88.799
381.66	88.560
382.32	88.331
382.98	88.074
383.64	87.831
384.30	87.578
384.96	87.328
385.61	87.065
386.27	86.791
386.93	86.506
387.59	86.218
388.25	85.923
388.92	85.636
389.58	85.323
390.25	85.008
390.91	84.692
391.58	84.373
392.25	84.029
392.92	83.686
393.59	83.336
394.25	82.971
394.91	82.600
395.57	82.201
396.23	81.802
396.89	81.400
397.56	80.987
398.23	80.561
398.89	80.123
399.56	79.676
400.23	79.215
400.89	78.746
401.56	78.278
402.22	77.796
402.88	77.321
403.53	76.825
404.19	76.311
404.84	75.798
405.50	75.271
406.15	74.733
406.81	74.185
407.46	73.623
408.11	73.061
408.77	72.471
409.43	71.888
410.09	71.295
410.76	70.688
411.41	70.078
412.07	69.460
412.72	68.825
413.38	68.166
414.03	67.504
414.68	66.845
415.33	66.179
415.98	65.492
416.63	64.788
417.29	64.087
417.95	63.372
418.61	62.648
419.27	61.915
419.92	61.173
420.58	60.424
421.24	59.664
421.91	58.898
422.57	58.103
423.24	57.305
423.91	56.508
424.57	55.696
425.24	54.881
425.90	54.059
426.56	53.216
427.21	52.355
427.87	51.495
428.53	50.621
429.19	49.754
429.84	48.866
430.50	47.985
431.15	47.086
431.81	46.184
432.46	45.269
433.12	44.367
433.78	43.447
434.44	42.521
435.10	41.592
435.76	40.655
436.43	39.725
437.10	38.789
437.76	37.862
438.43	36.929
439.10	35.986
439.76	35.046
440.42	34.109
441.09	33.169
441.76	32.229
442.42	31.310
443.08	30.366
443.75	29.444
444.41	28.524
445.08	27.602
445.75	26.703
446.42	25.805
447.08	24.913
447.75	24.022
448.41	23.158
449.07	22.312
449.74	21.476
450.39	20.633
451.06	19.814
451.73	19.034
452.41	18.239
453.08	17.473
453.76	16.737
454.42	16.012
455.09	15.329
455.76	14.653
456.44	13.997
457.12	13.365
457.79	12.758
458.47	12.158
459.15	11.596
459.83	11.059
460.52	10.570
461.21	10.112
461.89	9.671
462.57	9.238
463.26	8.853
463.94	8.488
464.62	8.127
465.30	7.795
465.97	7.486
466.64	7.208
467.31	6.927
467.98	6.667
468.66	6.431
469.34	6.195
470.02	5.966
470.71	5.745
471.39	5.533
472.08	5.339
472.76	5.165
473.43	4.992
474.11	4.818
474.78	4.662
475.46	4.513
476.14	4.360
476.81	4.228
477.48	4.107
478.15	3.986
478.83	3.878
479.52	3.767
480.19	3.670
480.86	3.590
481.53	3.521
482.20	3.462
482.87	3.424
483.53	3.375
484.20	3.344
484.87	3.313
485.54	3.306
486.21	3.289
486.88	3.271
487.56	3.271
488.22	3.254
488.89	3.254
489.56	3.243
490.23	3.236
490.89	3.209
491.56	3.205
492.23	3.209
492.89	3.195
493.56	3.174
494.23	3.167
494.90	3.160
495.57	3.143
496.24	3.132
496.91	3.126
497.58	3.112
498.26	3.084
498.93	3.087
499.60	3.066
500.28	3.056
500.96	3.053
501.64	3.046
502.32	3.021
503.00	3.008
503.68	3.008
504.35	2.990
505.02	2.983
505.70	2.969
506.37	2.959
507.04	2.935
507.71	2.907
508.37	2.890
509.03	2.883
509.69	2.872
510.35	2.872
511.01	2.851
511.67	2.841
512.34	2.827
513.00	2.813
513.67	2.792
514.34	2.782
515.00	2.761
515.66	2.747
516.32	2.737
516.98	2.727
517.65	2.709
518.31	2.695
518.97	2.695
519.62	2.685
520.28	2.674
520.94	2.654
521.60	2.636
522.25	2.629
522.91	2.616
523.57	2.609
524.24	2.591
524.90	2.595
525.56	2.588
526.23	2.574
526.89	2.557
527.56	2.553
528.24	2.543
528.91	2.529
529.58	2.518
530.25	2.511
530.91	2.491
531.58	2.480
532.25	2.459
532.92	2.449
533.59	2.442
534.24	2.432
534.90	2.411
535.57	2.390
536.23	2.362
536.90	2.373
537.56	2.362
538.22	2.352
538.88	2.338
539.56	2.338
540.23	2.321
540.90	2.307
541.57	2.303
542.24	2.290
542.90	2.262
543.57	2.255
544.22	2.255
544.88	2.241
545.54	2.224
546.21	2.217
546.87	2.210
547.55	2.203
548.23	2.189
548.90	2.185
549.56	2.164
550.22	2.154
550.88	2.140
551.55	2.123
552.22	2.113
552.89	2.102
553.56	2.095
554.24	2.085
554.91	2.061
555.58	2.054
556.25	2.043
556.92	2.043
557.59	2.015
558.26	1.998
558.91	1.977
559.58	1.984
560.25	1.977
560.92	1.963
561.59	1.953
562.27	1.946
562.95	1.925
563.61	1.918
564.29	1.901
564.98	1.887
565.65	1.877
566.31	1.856
566.98	1.838
567.65	1.825
568.32	1.804
568.99	1.783
569.67	1.776
570.34	1.766
571.00	1.755
571.68	1.735
572.35	1.724
573.01	1.710
573.67	1.696
574.33	1.679
574.99	1.665
575.66	1.658
576.33	1.651
576.99	1.637
577.66	1.617
578.35	1.609
579.04	1.592
579.74	1.578
580.45	1.575
581.14	1.568
581.82	1.561
582.50	1.537
583.17	1.533
583.86	1.523
584.55	1.526
585.25	1.506
585.94	1.495
586.64	1.485
587.35	1.474
587.70	1.460