File: 论文/tga txt new/15%5mm.txt
Filename:	D:\TGAdata\„∆√ŒœÈ\Ã∆–°º™\15%5mm.t6d

Temperature (°„C)	Weight % (%)
28.11	100.095
28.10	100.067
28.11	100.079
28.12	100.103
28.16	100.138
28.24	100.185
28.36	100.201
28.52	100.185
28.73	100.213
28.99	100.205
29.32	100.221
29.68	100.232
30.10	100.236
30.55	100.240
31.02	100.244
31.52	100.236
32.05	100.248
32.59	100.264
33.15	100.244
33.72	100.260
34.31	100.287
34.91	100.264
35.51	100.276
36.12	100.279
36.74	100.283
37.37	100.279
38.00	100.268
38.63	100.276
39.27	100.303
39.91	100.335
40.56	100.358
41.20	100.358
41.86	100.366
42.51	100.378
43.17	100.397
43.83	100.389
44.50	100.386
45.16	100.409
45.83	100.417
46.49	100.417
47.16	100.441
47.83	100.441
48.51	100.441
49.19	100.452
49.86	100.445
50.54	100.445
51.21	100.460
51.89	100.456
52.57	100.456
53.24	100.464
53.93	100.448
54.61	100.445
55.28	100.452
55.96	100.460
56.64	100.448
57.31	100.441
58.00	100.448
58.67	100.464
59.35	100.456
60.03	100.460
60.71	100.480
61.38	100.476
62.06	100.464
62.74	100.464
63.42	100.452
64.11	100.448
64.78	100.448
65.47	100.452
66.14	100.452
66.83	100.441
67.51	100.433
68.19	100.421
68.88	100.425
69.56	100.433
70.26	100.417
70.95	100.401
71.64	100.409
72.33	100.409
73.02	100.405
73.71	100.405
74.40	100.409
75.09	100.397
75.77	100.394
76.46	100.417
77.14	100.405
77.83	100.397
78.51	100.401
79.20	100.409
79.88	100.401
80.57	100.378
81.25	100.382
81.94	100.382
82.63	100.378
83.31	100.374
84.00	100.382
84.68	100.370
85.36	100.366
86.05	100.382
86.73	100.374
87.41	100.374
88.10	100.370
88.78	100.362
89.46	100.370
90.14	100.389
90.82	100.389
91.50	100.382
92.18	100.374
92.86	100.370
93.55	100.354
94.23	100.346
94.92	100.330
95.60	100.327
96.29	100.338
96.97	100.346
97.65	100.346
98.33	100.335
99.02	100.335
99.70	100.327
100.38	100.330
101.07	100.338
101.75	100.319
102.43	100.319
103.11	100.315
103.79	100.311
104.47	100.311
105.15	100.315
105.82	100.307
106.50	100.299
107.16	100.303
107.83	100.303
108.49	100.307
109.15	100.303
109.80	100.299
110.45	100.315
111.11	100.311
111.76	100.311
112.41	100.307
113.06	100.291
113.72	100.287
114.37	100.279
115.02	100.279
115.67	100.276
116.32	100.264
116.96	100.256
117.61	100.260
118.25	100.260
118.90	100.260
119.54	100.256
120.19	100.256
120.83	100.244
121.47	100.240
122.11	100.240
122.75	100.236
123.40	100.225
124.05	100.232
124.71	100.225
125.36	100.221
126.02	100.232
126.67	100.229
127.33	100.221
127.98	100.213
128.64	100.201
129.30	100.197
129.95	100.197
130.60	100.193
131.25	100.197
131.90	100.205
132.55	100.205
133.20	100.205
133.84	100.201
134.49	100.197
135.14	100.181
135.79	100.170
136.45	100.166
137.10	100.166
137.75	100.173
138.39	100.173
139.04	100.166
139.69	100.166
140.34	100.158
140.98	100.166
141.63	100.154
142.28	100.146
142.92	100.138
143.57	100.134
144.21	100.126
144.85	100.122
145.49	100.111
146.14	100.111
146.79	100.103
147.43	100.114
148.08	100.111
148.72	100.114
149.37	100.103
150.01	100.095
150.65	100.107
151.29	100.107
151.93	100.103
152.57	100.095
153.21	100.099
153.85	100.095
154.49	100.095
155.13	100.095
155.77	100.087
156.41	100.071
157.05	100.079
157.69	100.071
158.32	100.071
158.96	100.063
159.61	100.055
160.25	100.060
160.90	100.060
161.54	100.044
162.18	100.055
162.82	100.060
163.45	100.052
164.09	100.060
164.74	100.067
165.38	100.071
166.02	100.075
166.66	100.079
167.31	100.067
167.95	100.060
168.59	100.060
169.23	100.060
169.88	100.052
170.52	100.052
171.16	100.048
171.80	100.052
172.44	100.040
173.08	100.028
173.73	100.036
174.38	100.040
175.03	100.024
175.69	100.032
176.34	100.032
176.99	100.032
177.65	100.020
178.30	100.020
178.96	100.013
179.61	100.028
180.27	100.028
180.93	100.016
181.59	100.013
182.26	100.001
182.92	100.001
183.58	100.013
184.25	100.016
184.91	100.016
185.57	100.013
186.22	100.001
186.88	99.997
187.54	100.008
188.20	100.001
188.86	99.997
189.52	99.989
190.18	99.981
190.83	99.961
191.50	99.965
192.16	99.973
192.81	99.973
193.47	99.977
194.13	99.977
194.78	99.973
195.44	99.981
196.10	99.977
196.75	99.981
197.41	99.985
198.08	99.973
198.73	99.977
199.39	99.973
200.05	99.977
200.70	99.973
201.36	99.961
202.03	99.957
202.69	99.954
203.35	99.946
204.02	99.942
204.67	99.946
205.33	99.942
205.99	99.946
206.65	99.946
207.31	99.946
207.97	99.954
208.63	99.946
209.29	99.938
209.95	99.922
210.61	99.914
211.27	99.914
211.94	99.910
212.59	99.934
213.26	99.934
213.92	99.926
214.58	99.922
215.25	99.906
215.91	99.898
216.58	99.910
217.24	99.895
217.90	99.898
218.57	99.895
219.23	99.898
219.89	99.891
220.55	99.875
221.22	99.871
221.88	99.879
222.54	99.879
223.20	99.887
223.85	99.891
224.51	99.887
225.17	99.875
225.83	99.859
226.48	99.855
227.14	99.859
227.79	99.863
228.45	99.859
229.11	99.847
229.76	99.847
230.42	99.851
231.08	99.851
231.74	99.855
232.40	99.836
233.05	99.824
233.72	99.832
234.38	99.816
235.04	99.812
235.70	99.812
236.36	99.800
237.01	99.792
237.67	99.797
238.33	99.781
239.00	99.765
239.66	99.773
240.33	99.769
240.99	99.761
241.65	99.753
242.31	99.741
242.96	99.738
243.61	99.722
244.28	99.722
244.94	99.714
245.60	99.722
246.27	99.706
246.94	99.694
247.61	99.694
248.27	99.682
248.93	99.675
249.60	99.667
250.26	99.655
250.93	99.631
251.59	99.635
252.25	99.627
252.92	99.620
253.59	99.620
254.25	99.620
254.92	99.596
255.58	99.588
256.25	99.592
256.91	99.596
257.57	99.592
258.23	99.588
258.88	99.580
259.54	99.561
260.19	99.569
260.84	99.557
261.49	99.549
262.14	99.545
262.79	99.533
263.44	99.510
264.08	99.494
264.73	99.482
265.37	99.470
266.02	99.466
266.66	99.447
267.31	99.443
267.96	99.439
268.61	99.435
269.25	99.419
269.89	99.404
270.54	99.400
271.19	99.396
271.83	99.388
272.48	99.384
273.13	99.376
273.78	99.368
274.42	99.364
275.07	99.345
275.71	99.317
276.35	99.309
276.99	99.305
277.63	99.282
278.28	99.270
278.92	99.270
279.57	99.270
280.21	99.270
280.85	99.235
281.50	99.215
282.14	99.207
282.79	99.203
283.43	99.188
284.07	99.164
284.72	99.156
285.37	99.148
286.03	99.156
286.68	99.144
287.33	99.136
287.97	99.121
288.62	99.117
289.27	99.097
289.91	99.082
290.55	99.070
291.19	99.062
291.84	99.054
292.49	99.046
293.13	99.046
293.79	99.019
294.44	99.015
295.08	98.999
295.74	98.979
296.38	98.952
297.03	98.940
297.68	98.920
298.33	98.913
298.98	98.901
299.63	98.881
300.29	98.858
300.95	98.826
301.62	98.807
302.28	98.795
302.94	98.771
303.61	98.759
304.28	98.740
304.95	98.716
305.62	98.689
306.29	98.661
306.96	98.649
307.63	98.634
308.30	98.614
308.96	98.602
309.63	98.575
310.30	98.547
310.97	98.520
311.64	98.485
312.32	98.453
312.99	98.429
313.67	98.406
314.34	98.359
315.02	98.316
315.69	98.288
316.36	98.257
317.03	98.221
317.70	98.194
318.37	98.151
319.04	98.115
319.71	98.072
320.38	98.037
321.05	97.978
321.72	97.942
322.38	97.911
323.04	97.868
323.71	97.809
324.38	97.746
325.05	97.695
325.72	97.648
326.39	97.613
327.06	97.546
327.72	97.498
328.39	97.447
329.06	97.377
329.73	97.306
330.40	97.243
331.07	97.184
331.73	97.117
332.40	97.058
333.08	96.996
333.75	96.937
334.42	96.870
335.09	96.792
335.76	96.713
336.43	96.634
337.10	96.564
337.77	96.505
338.44	96.418
339.11	96.328
339.77	96.253
340.44	96.159
341.11	96.065
341.77	95.970
342.44	95.869
343.11	95.770
343.78	95.656
344.44	95.546
345.12	95.448
345.79	95.342
346.46	95.201
347.13	95.071
347.81	94.938
348.48	94.800
349.14	94.658
349.81	94.521
350.48	94.395
351.15	94.246
351.83	94.081
352.49	93.916
353.16	93.747
353.83	93.586
354.51	93.405
355.18	93.225
355.86	93.040
356.54	92.856
357.21	92.675
357.89	92.483
358.57	92.286
359.25	92.078
359.93	91.870
360.60	91.634
361.28	91.410
361.95	91.186
362.63	90.951
363.30	90.707
363.97	90.471
364.64	90.220
365.31	89.969
365.98	89.717
366.65	89.446
367.32	89.167
367.98	88.888
368.64	88.617
369.30	88.339
369.96	88.052
370.61	87.761
371.27	87.474
371.93	87.184
372.60	86.881
373.26	86.587
373.92	86.276
374.58	85.950
375.23	85.628
375.89	85.314
376.55	84.992
377.20	84.666
377.86	84.352
378.52	84.045
379.18	83.719
379.84	83.401
380.50	83.071
381.15	82.753
381.81	82.419
382.46	82.093
383.12	81.759
383.78	81.425
384.44	81.095
385.10	80.761
385.76	80.436
386.42	80.086
387.08	79.748
387.75	79.395
388.41	79.057
389.07	78.715
389.73	78.354
390.40	78.004
391.06	77.643
391.74	77.277
392.41	76.900
393.07	76.527
393.74	76.134
394.40	75.745
395.06	75.349
395.72	74.944
396.38	74.512
397.04	74.092
397.71	73.668
398.37	73.224
399.04	72.756
399.70	72.305
400.36	71.845
401.02	71.358
401.68	70.851
402.35	70.352
403.01	69.842
403.67	69.319
404.34	68.777
405.01	68.239
405.67	67.677
406.33	67.100
406.99	66.515
407.65	65.918
408.31	65.305
408.97	64.700
409.62	64.075
410.28	63.427
410.94	62.783
411.60	62.119
412.26	61.448
412.91	60.776
413.57	60.077
414.22	59.374
414.87	58.647
415.53	57.920
416.18	57.206
416.83	56.471
417.49	55.721
418.14	54.966
418.79	54.189
419.44	53.403
420.10	52.598
420.75	51.789
421.41	50.987
422.08	50.194
422.74	49.365
423.39	48.532
424.05	47.692
424.70	46.847
425.36	45.999
426.01	45.147
426.67	44.287
427.33	43.410
428.00	42.531
428.66	41.651
429.32	40.771
429.98	39.887
430.64	38.984
431.31	38.100
431.98	37.224
432.64	36.325
433.31	35.441
433.97	34.549
434.63	33.653
435.29	32.754
435.95	31.906
436.62	31.049
437.28	30.185
437.94	29.321
438.61	28.461
439.26	27.612
439.91	26.787
440.57	25.955
441.24	25.169
441.91	24.387
442.58	23.617
443.24	22.875
443.90	22.145
444.57	21.430
445.23	20.742
445.90	20.059
446.56	19.375
447.23	18.727
447.91	18.107
448.58	17.494
449.26	16.905
449.93	16.347
450.60	15.817
451.28	15.310
451.94	14.842
452.62	14.387
453.29	13.931
453.98	13.523
454.66	13.134
455.34	12.788
456.02	12.446
456.70	12.136
457.37	11.857
458.04	11.578
458.72	11.311
459.39	11.056
460.07	10.812
460.75	10.577
461.43	10.341
462.10	10.141
462.78	9.929
463.45	9.716
464.12	9.536
464.80	9.363
465.48	9.194
466.17	9.021
466.85	8.864
467.53	8.715
468.20	8.558
468.87	8.420
469.54	8.287
470.22	8.153
470.90	8.035
471.57	7.914
472.25	7.811
472.92	7.701
473.60	7.615
474.28	7.521
474.95	7.442
475.62	7.364
476.29	7.297
476.96	7.242
477.63	7.195
478.30	7.151
478.97	7.116
479.64	7.081
480.31	7.061
480.98	7.053
481.65	7.034
482.32	7.037
482.99	7.030
483.66	7.042
484.33	7.037
485.00	7.026
485.66	7.014
486.32	6.994
486.99	6.979
487.66	6.963
488.33	6.939
489.00	6.924
489.67	6.916
490.35	6.904
491.03	6.884
491.71	6.880
492.39	6.869
493.06	6.857
493.74	6.849
494.41	6.829
495.09	6.829
495.76	6.798
496.43	6.786
497.11	6.794
497.78	6.774
498.46	6.759
499.13	6.747
499.80	6.735
500.46	6.719
501.13	6.719
501.81	6.708
502.48	6.700
503.15	6.700
503.82	6.684
504.49	6.672
505.16	6.661
505.83	6.645
506.51	6.625
507.18	6.602
507.84	6.602
508.51	6.594
509.17	6.586
509.83	6.578
510.49	6.562
511.14	6.539
511.80	6.539
512.47	6.543
513.13	6.523
513.80	6.507
514.46	6.495
515.12	6.468
515.78	6.456
516.45	6.452
517.11	6.429
517.76	6.421
518.43	6.401
519.09	6.405
519.75	6.393
520.41	6.386
521.08	6.370
521.76	6.362
522.43	6.346
523.10	6.330
523.77	6.319
524.43	6.307
525.09	6.291
525.75	6.279
526.40	6.264
527.07	6.240
527.73	6.224
528.40	6.213
529.07	6.201
529.73	6.181
530.40	6.162
531.06	6.154
531.72	6.134
532.39	6.103
533.06	6.079
533.73	6.059
534.40	6.048
535.07	6.055
535.74	6.044
536.40	6.024
537.07	6.020
537.74	5.997
538.41	5.965
539.08	5.961
539.73	5.942
540.38	5.914
541.04	5.898
541.70	5.883
542.37	5.863
543.04	5.859
543.70	5.847
544.37	5.812
545.05	5.792
545.73	5.784
546.41	5.761
547.08	5.753
547.75	5.749
548.43	5.737
549.10	5.714
549.78	5.690
550.45	5.694
551.12	5.686
551.80	5.659
552.48	5.651
553.15	5.639
553.82	5.608
554.49	5.596
555.15	5.576
555.83	5.576
556.50	5.553
557.17	5.553
557.84	5.545
558.50	5.517
559.17	5.490
559.84	5.466
560.51	5.458
561.18	5.451
561.85	5.451
562.51	5.447
563.19	5.423
563.86	5.411
564.53	5.404
565.20	5.376
565.88	5.352
566.55	5.352
567.21	5.356
567.87	5.341
568.54	5.321
569.21	5.309
569.88	5.301
570.55	5.282
571.23	5.270
571.90	5.254
572.58	5.242
573.25	5.207
573.93	5.199
574.61	5.191
575.29	5.180
575.97	5.164
576.64	5.144
577.30	5.121
577.98	5.121
578.65	5.089
579.33	5.070
580.01	5.062
580.70	5.042
581.39	5.030
582.08	5.026
582.77	5.015
583.45	4.995
584.13	4.987
584.81	4.975
585.49	4.960
586.18	4.932
586.87	4.920
587.56	4.897
588.25	4.869