File: 论文/tga txt new/20%10mm.txt
Filename:	D:\TGAdata\„∆√ŒœÈ\Ã∆–°º™\20%10mm.t6d

Temperature (°„C)	Weight % (%)
28.38	100.017
28.39	99.993
28.38	100.007
28.39	100.027
28.42	100.003
28.49	100.010
28.59	100.024
28.72	100.017
28.90	100.038
29.15	100.048
29.45	100.027
29.80	100.048
30.20	100.041
30.64	100.041
31.11	100.045
31.61	100.051
32.13	100.058
32.66	100.069
33.21	100.072
33.78	100.058
34.36	100.055
34.96	100.051
35.56	100.041
36.17	100.065
36.79	100.069
37.42	100.058
38.05	100.062
38.67	100.058
39.30	100.051
39.94	100.048
40.58	100.048
41.23	100.051
41.88	100.055
42.53	100.065
43.19	100.065
43.86	100.082
44.52	100.082
45.18	100.069
45.85	100.069
46.52	100.062
47.19	100.045
47.85	100.045
48.52	100.048
49.19	100.041
49.86	100.034
50.54	100.045
51.21	100.038
51.89	100.027
52.57	100.034
53.25	100.027
53.93	100.024
54.61	100.017
55.29	100.014
55.97	100.017
56.65	100.020
57.33	100.020
58.01	100.020
58.69	100.024
59.37	100.020
60.05	100.010
60.73	99.996
61.41	100.003
62.09	100.010
62.77	100.003
63.46	99.990
64.14	99.996
64.83	99.993
65.51	99.986
66.20	99.983
66.88	99.990
67.57	99.973
68.25	99.979
68.92	99.973
69.60	99.966
70.28	99.962
70.97	99.959
71.65	99.952
72.34	99.941
73.02	99.935
73.71	99.928
74.39	99.924
75.08	99.928
75.76	99.917
76.45	99.917
77.13	99.921
77.81	99.924
78.50	99.914
79.18	99.914
79.86	99.917
80.55	99.921
81.23	99.911
81.91	99.904
82.60	99.897
83.28	99.880
83.97	99.876
84.65	99.869
85.34	99.859
86.02	99.862
86.71	99.852
87.39	99.852
88.08	99.845
88.76	99.845
89.45	99.849
90.14	99.838
90.83	99.845
91.51	99.845
92.20	99.852
92.88	99.852
93.56	99.835
94.24	99.824
94.93	99.818
95.61	99.831
96.30	99.835
96.98	99.835
97.67	99.828
98.36	99.831
99.04	99.828
99.73	99.828
100.41	99.814
101.09	99.807
101.78	99.821
102.46	99.818
103.14	99.814
103.82	99.801
104.51	99.794
105.19	99.780
105.86	99.787
106.54	99.783
107.21	99.780
107.87	99.783
108.53	99.783
109.18	99.776
109.83	99.763
110.48	99.770
111.13	99.780
111.78	99.773
112.43	99.776
113.08	99.780
113.73	99.766
114.39	99.759
115.03	99.763
115.68	99.759
116.33	99.746
116.97	99.746
117.62	99.739
118.26	99.742
118.91	99.739
119.56	99.742
120.20	99.746
120.85	99.732
121.49	99.722
122.14	99.735
122.78	99.728
123.43	99.728
124.09	99.722
124.75	99.718
125.40	99.722
126.06	99.722
126.71	99.718
127.36	99.722
128.02	99.722
128.68	99.708
129.33	99.701
129.99	99.687
130.65	99.694
131.30	99.704
131.95	99.694
132.60	99.687
133.25	99.684
133.90	99.690
134.55	99.697
135.20	99.704
135.85	99.701
136.50	99.701
137.15	99.690
137.80	99.684
138.45	99.690
139.10	99.687
139.75	99.680
140.40	99.673
141.04	99.684
141.69	99.684
142.33	99.684
142.97	99.677
143.62	99.680
144.26	99.677
144.90	99.670
145.55	99.663
146.20	99.646
146.84	99.646
147.47	99.639
148.11	99.646
148.75	99.639
149.40	99.629
150.05	99.629
150.69	99.632
151.32	99.635
151.97	99.642
152.60	99.639
153.24	99.629
153.88	99.618
154.52	99.622
155.15	99.618
155.80	99.622
156.43	99.625
157.07	99.618
157.72	99.612
158.36	99.618
159.00	99.625
159.64	99.632
160.29	99.625
160.93	99.625
161.58	99.618
162.22	99.625
162.85	99.622
163.49	99.612
164.13	99.612
164.77	99.608
165.41	99.615
166.05	99.615
166.69	99.612
167.32	99.612
167.96	99.612
168.60	99.612
169.23	99.622
169.87	99.622
170.51	99.622
171.15	99.622
171.78	99.615
172.43	99.598
173.07	99.591
173.72	99.605
174.37	99.605
175.03	99.605
175.69	99.594
176.35	99.598
177.01	99.598
177.67	99.591
178.33	99.584
178.98	99.577
179.64	99.591
180.30	99.591
180.96	99.591
181.62	99.591
182.28	99.580
182.94	99.584
183.61	99.584
184.27	99.591
184.94	99.591
185.59	99.580
186.26	99.577
186.92	99.577
187.58	99.580
188.24	99.584
188.90	99.584
189.55	99.577
190.21	99.574
190.86	99.584
191.53	99.574
192.19	99.567
192.85	99.570
193.51	99.567
194.17	99.563
194.83	99.567
195.48	99.556
196.14	99.560
196.79	99.556
197.45	99.556
198.10	99.560
198.76	99.550
199.42	99.560
200.09	99.560
200.75	99.560
201.41	99.567
202.08	99.570
202.74	99.570
203.40	99.570
204.07	99.574
204.73	99.570
205.39	99.577
206.05	99.577
206.71	99.570
207.37	99.560
208.03	99.560
208.68	99.556
209.34	99.543
210.00	99.539
210.66	99.532
211.32	99.539
211.98	99.529
212.65	99.536
213.31	99.543
213.98	99.543
214.64	99.539
215.31	99.525
215.97	99.525
216.63	99.525
217.29	99.536
217.96	99.543
218.63	99.543
219.30	99.539
219.96	99.536
220.63	99.525
221.30	99.532
221.96	99.539
222.62	99.539
223.28	99.536
223.94	99.529
224.60	99.525
225.26	99.529
225.92	99.529
226.59	99.529
227.25	99.529
227.90	99.529
228.56	99.532
229.22	99.525
229.88	99.522
230.54	99.522
231.19	99.522
231.85	99.519
232.50	99.508
233.16	99.498
233.82	99.501
234.47	99.495
235.13	99.484
235.79	99.484
236.45	99.488
237.11	99.484
237.77	99.484
238.44	99.471
239.10	99.464
239.76	99.464
240.43	99.471
241.09	99.471
241.75	99.464
242.41	99.464
243.07	99.460
243.72	99.446
244.38	99.446
245.04	99.450
245.70	99.440
246.37	99.433
247.03	99.436
247.69	99.429
248.36	99.429
249.03	99.433
249.70	99.429
250.37	99.429
251.04	99.422
251.70	99.416
252.37	99.391
253.03	99.398
253.70	99.409
254.36	99.405
255.02	99.398
255.69	99.388
256.35	99.378
257.01	99.385
257.67	99.381
258.32	99.371
258.97	99.361
259.62	99.350
260.27	99.354
260.92	99.336
261.57	99.333
262.23	99.323
262.88	99.319
263.53	99.306
264.19	99.295
264.84	99.295
265.49	99.288
266.14	99.285
266.79	99.268
267.44	99.261
268.09	99.261
268.73	99.254
269.38	99.233
270.03	99.227
270.68	99.233
271.33	99.223
271.98	99.206
272.62	99.202
273.27	99.189
273.91	99.172
274.55	99.161
275.19	99.158
275.83	99.144
276.47	99.134
277.11	99.117
277.75	99.113
278.39	99.110
279.03	99.092
279.68	99.092
280.32	99.079
280.96	99.068
281.61	99.065
282.25	99.055
282.91	99.044
283.55	99.027
284.20	99.020
284.84	99.003
285.49	98.986
286.13	98.976
286.78	98.958
287.42	98.945
288.07	98.927
288.70	98.910
289.35	98.907
289.99	98.893
290.64	98.890
291.29	98.862
291.94	98.845
292.59	98.828
293.24	98.831
293.89	98.817
294.54	98.807
295.18	98.797
295.83	98.793
296.48	98.769
297.13	98.759
297.78	98.745
298.42	98.732
299.07	98.707
299.72	98.697
300.36	98.697
301.02	98.687
301.68	98.666
302.34	98.645
303.00	98.625
303.67	98.590
304.34	98.573
305.01	98.570
305.68	98.556
306.36	98.539
307.03	98.511
307.70	98.494
308.36	98.481
309.03	98.456
309.70	98.432
310.38	98.405
311.05	98.384
311.73	98.364
312.40	98.346
313.07	98.329
313.74	98.298
314.42	98.281
315.09	98.247
315.77	98.223
316.44	98.195
317.12	98.154
317.79	98.126
318.46	98.099
319.13	98.054
319.80	98.027
320.47	97.992
321.14	97.965
321.80	97.937
322.47	97.896
323.14	97.851
323.81	97.807
324.48	97.772
325.14	97.717
325.82	97.680
326.48	97.642
327.15	97.594
327.82	97.539
328.49	97.491
329.15	97.432
329.82	97.377
330.48	97.322
331.15	97.257
331.82	97.202
332.50	97.160
333.17	97.085
333.84	97.020
334.51	96.958
335.18	96.882
335.85	96.813
336.52	96.731
337.19	96.659
337.86	96.580
338.53	96.494
339.19	96.411
339.86	96.312
340.53	96.219
341.21	96.119
341.89	96.016
342.56	95.913
343.24	95.820
343.91	95.727
344.59	95.621
345.26	95.507
345.93	95.394
346.59	95.267
347.26	95.143
347.93	95.026
348.60	94.892
349.28	94.761
349.96	94.620
350.64	94.476
351.32	94.335
352.00	94.180
352.67	94.026
353.35	93.864
354.03	93.713
354.70	93.555
355.38	93.379
356.06	93.204
356.75	93.015
357.43	92.833
358.11	92.640
358.78	92.444
359.47	92.252
360.16	92.059
360.84	91.860
361.52	91.657
362.19	91.444
362.86	91.228
363.53	91.007
364.19	90.784
364.86	90.554
365.53	90.320
366.20	90.086
366.86	89.845
367.53	89.595
368.19	89.340
368.84	89.093
369.51	88.828
370.17	88.560
370.84	88.299
371.50	88.041
372.16	87.769
372.82	87.505
373.48	87.236
374.14	86.958
374.80	86.673
375.46	86.384
376.11	86.092
376.76	85.810
377.42	85.538
378.09	85.250
378.75	84.957
379.41	84.665
380.07	84.380
380.73	84.091
381.39	83.792
382.05	83.493
382.72	83.194
383.38	82.905
384.06	82.606
384.72	82.311
385.39	82.012
386.05	81.702
386.71	81.410
387.37	81.107
388.03	80.788
388.70	80.475
389.37	80.155
390.03	79.836
390.70	79.502
391.37	79.176
392.03	78.846
392.69	78.502
393.36	78.158
394.02	77.811
394.68	77.450
395.34	77.086
396.00	76.704
396.67	76.333
397.34	75.927
398.00	75.521
398.66	75.116
399.32	74.697
399.99	74.287
400.65	73.854
401.31	73.418
401.97	72.957
402.63	72.493
403.31	72.022
403.97	71.541
404.63	71.053
405.28	70.561
405.94	70.066
406.59	69.558
407.24	69.032
407.90	68.519
408.56	67.983
409.22	67.426
409.88	66.870
410.54	66.306
411.20	65.725
411.87	65.147
412.53	64.552
413.19	63.941
413.85	63.322
414.51	62.696
415.17	62.057
415.83	61.418
416.48	60.775
417.14	60.111
417.80	59.441
418.45	58.764
419.10	58.076
419.75	57.354
420.40	56.643
421.05	55.928
421.71	55.185
422.37	54.450
423.03	53.704
423.69	52.944
424.35	52.181
425.00	51.404
425.66	50.607
426.30	49.816
426.96	49.001
427.62	48.187
428.28	47.365
428.94	46.523
429.60	45.684
430.26	44.849
430.92	43.990
431.59	43.141
432.25	42.274
432.90	41.411
433.56	40.549
434.22	39.658
434.89	38.771
435.55	37.885
436.21	36.984
436.88	36.100
437.54	35.220
438.19	34.327
438.85	33.440
439.51	32.539
440.17	31.652
440.84	30.765
441.50	29.899
442.16	29.033
442.82	28.160
443.49	27.307
444.15	26.441
444.82	25.589
445.49	24.733
446.16	23.894
446.83	23.076
447.50	22.258
448.17	21.453
448.85	20.683
449.52	19.917
450.19	19.154
450.86	18.415
451.53	17.693
452.20	17.002
452.87	16.331
453.55	15.685
454.22	15.060
454.90	14.468
455.58	13.908
456.25	13.358
456.93	12.839
457.61	12.351
458.29	11.901
458.97	11.474
459.66	11.079
460.34	10.698
461.02	10.367
461.70	10.044
462.37	9.725
463.05	9.439
463.73	9.168
464.41	8.910
465.09	8.652
465.77	8.436
466.44	8.229
467.12	8.037
467.79	7.834
468.46	7.659
469.13	7.504
469.81	7.353
470.49	7.208
471.16	7.064
471.84	6.923
472.53	6.806
473.21	6.683
473.89	6.562
474.57	6.452
475.25	6.349
475.93	6.260
476.60	6.177
477.28	6.112
477.95	6.060
478.63	5.999
479.30	5.940
479.98	5.906
480.65	5.882
481.32	5.868
481.99	5.854
482.66	5.837
483.33	5.803
484.00	5.796
484.68	5.778
485.35	5.761
486.03	5.754
486.70	5.761
487.37	5.758
488.05	5.741
488.72	5.723
489.39	5.717
490.07	5.689
490.74	5.668
491.42	5.665
492.10	5.661
492.77	5.644
493.44	5.644
494.10	5.624
494.77	5.606
495.45	5.589
496.12	5.589
496.80	5.579
497.48	5.586
498.15	5.572
498.83	5.562
499.50	5.548
500.17	5.531
500.84	5.514
501.51	5.517
502.19	5.504
502.86	5.504
503.53	5.500
504.21	5.490
504.89	5.469
505.57	5.449
506.24	5.428
506.92	5.428
507.59	5.397
508.26	5.397
508.92	5.387
509.58	5.376
510.24	5.373
510.89	5.352
511.55	5.342
512.22	5.335
512.88	5.321
513.54	5.314
514.21	5.314
514.88	5.297
515.54	5.287
516.21	5.280
516.87	5.256
517.52	5.239
518.18	5.225
518.85	5.222
519.51	5.222
520.18	5.215
520.84	5.194
521.50	5.187
522.16	5.184
522.83	5.163
523.49	5.160
524.15	5.139
524.82	5.118
525.49	5.108
526.16	5.112
526.81	5.112
527.47	5.101
528.12	5.074
528.78	5.046
529.45	5.022
530.12	5.015
530.78	5.002
531.46	4.988
532.13	4.977
532.79	4.971
533.45	4.960
534.11	4.957
534.76	4.964
535.42	4.943
536.08	4.919
536.75	4.905
537.41	4.892
538.09	4.878
538.76	4.867
539.43	4.864
540.10	4.843
540.75	4.837
541.41	4.819
542.07	4.799
542.74	4.795
543.40	4.795
544.07	4.768
544.74	4.737
545.41	4.737
546.08	4.730
546.75	4.709
547.41	4.699
548.08	4.689
548.75	4.675
549.42	4.671
550.10	4.654
550.76	4.637
551.43	4.613
552.10	4.596
552.77	4.582
553.44	4.582
554.11	4.565
554.79	4.544
555.47	4.544
556.13	4.520
556.79	4.507
557.45	4.486
558.11	4.465
558.77	4.465
559.45	4.455
560.12	4.438
560.80	4.427
561.48	4.410
562.15	4.393
562.82	4.390
563.48	4.379
564.15	4.369
564.83	4.345
565.51	4.335
566.18	4.324
566.85	4.311
567.52	4.297
568.19	4.266
568.86	4.242
569.53	4.232
570.21	4.225
570.89	4.211
571.56	4.197
572.23	4.187
572.90	4.173
573.57	4.163
574.24	4.142
574.92	4.132
575.60	4.125
576.27	4.098
576.94	4.087
577.62	4.074
578.31	4.060
579.00	4.032
579.69	4.022
580.36	4.012
581.05	4.012
581.72	3.984
582.40	3.970
583.09	3.957
583.78	3.946
584.48	3.929
585.18	3.908
585.88	3.891
586.56	3.881
587.25	3.867
587.95	3.853
588.30	3.847