File: 论文/tga txt new/20%5mm.txt
Filename:	D:\TGAdata\„∆√ŒœÈ\Ã∆–°º™\20%5mm.t6d

Temperature (°„C)	Weight % (%)
28.30	100.015
28.30	100.000
28.30	100.009
28.31	100.009
28.35	100.015
28.43	100.018
28.55	100.025
28.70	100.034
28.90	100.040
29.16	100.049
29.48	100.046
29.85	100.043
30.25	100.043
30.70	100.043
31.17	100.061
31.67	100.058
32.19	100.058
32.73	100.071
33.29	100.071
33.86	100.068
34.44	100.071
35.04	100.068
35.64	100.064
36.25	100.071
36.86	100.074
37.48	100.083
38.12	100.083
38.75	100.068
39.39	100.080
40.03	100.080
40.68	100.074
41.34	100.080
41.99	100.092
42.64	100.092
43.30	100.092
43.96	100.101
44.62	100.098
45.29	100.095
45.96	100.095
46.63	100.092
47.30	100.098
47.97	100.105
48.64	100.101
49.31	100.098
49.98	100.101
50.65	100.101
51.31	100.101
51.99	100.101
52.67	100.098
53.35	100.101
54.03	100.095
54.71	100.105
55.40	100.114
56.08	100.120
56.76	100.120
57.45	100.120
58.13	100.108
58.81	100.111
59.49	100.108
60.17	100.095
60.85	100.098
61.53	100.101
62.21	100.092
62.88	100.092
63.57	100.098
64.24	100.101
64.92	100.089
65.60	100.092
66.28	100.089
66.97	100.095
67.65	100.092
68.34	100.095
69.03	100.098
69.72	100.098
70.41	100.101
71.10	100.098
71.79	100.092
72.48	100.092
73.17	100.083
73.86	100.080
74.55	100.071
75.24	100.071
75.93	100.071
76.61	100.071
77.29	100.064
77.98	100.061
78.66	100.058
79.34	100.058
80.02	100.052
80.71	100.043
81.39	100.055
82.08	100.046
82.77	100.049
83.45	100.046
84.14	100.049
84.82	100.046
85.51	100.037
86.20	100.034
86.88	100.028
87.57	100.025
88.26	100.025
88.95	100.031
89.64	100.028
90.32	100.012
91.00	100.025
91.68	100.018
92.36	100.022
93.05	100.022
93.72	100.012
94.40	100.006
95.08	100.009
95.76	100.006
96.44	100.009
97.11	100.009
97.80	100.009
98.48	100.006
99.17	100.006
99.85	99.994
100.54	99.981
101.23	99.975
101.92	99.985
102.60	99.981
103.29	99.985
103.98	99.978
104.66	99.985
105.35	99.985
106.03	99.972
106.71	99.978
107.38	99.972
108.04	99.972
108.70	99.963
109.36	99.960
110.02	99.969
110.67	99.963
111.32	99.954
111.97	99.942
112.62	99.932
113.27	99.929
113.92	99.926
114.57	99.923
115.23	99.923
115.88	99.914
116.54	99.914
117.19	99.914
117.84	99.908
118.48	99.905
119.13	99.895
119.78	99.883
120.43	99.880
121.07	99.880
121.71	99.877
122.35	99.889
122.99	99.892
123.63	99.880
124.28	99.871
124.93	99.871
125.59	99.868
126.25	99.871
126.90	99.862
127.56	99.868
128.22	99.856
128.88	99.853
129.53	99.849
130.18	99.846
130.84	99.834
131.49	99.831
132.15	99.834
132.80	99.825
133.46	99.822
134.11	99.825
134.76	99.822
135.41	99.812
136.06	99.803
136.71	99.794
137.36	99.788
138.01	99.782
138.66	99.779
139.31	99.766
139.96	99.769
140.60	99.769
141.25	99.763
141.90	99.766
142.54	99.769
143.19	99.766
143.83	99.766
144.48	99.751
145.13	99.751
145.78	99.742
146.43	99.736
147.08	99.739
147.73	99.742
148.38	99.742
149.02	99.742
149.67	99.742
150.32	99.732
150.95	99.729
151.60	99.729
152.25	99.726
152.90	99.729
153.55	99.726
154.19	99.717
154.83	99.708
155.47	99.708
156.11	99.702
156.76	99.705
157.40	99.692
158.04	99.689
158.68	99.702
159.32	99.692
159.97	99.680
160.61	99.677
161.25	99.680
161.89	99.680
162.52	99.677
163.16	99.686
163.81	99.680
164.45	99.677
165.09	99.671
165.73	99.674
166.37	99.671
167.01	99.671
167.65	99.671
168.29	99.668
168.93	99.668
169.57	99.668
170.21	99.671
170.85	99.668
171.50	99.659
172.14	99.665
172.78	99.665
173.43	99.659
174.08	99.668
174.73	99.656
175.38	99.656
176.04	99.656
176.69	99.659
177.35	99.659
178.01	99.653
178.66	99.646
179.31	99.646
179.96	99.640
180.61	99.646
181.27	99.640
181.91	99.634
182.57	99.634
183.22	99.628
183.88	99.616
184.54	99.619
185.20	99.628
185.86	99.628
186.52	99.619
187.18	99.609
187.84	99.603
188.50	99.616
189.17	99.619
189.83	99.619
190.49	99.609
191.14	99.603
191.80	99.591
192.46	99.588
193.12	99.594
193.78	99.588
194.44	99.588
195.11	99.588
195.77	99.585
196.43	99.588
197.09	99.582
197.75	99.579
198.41	99.576
199.07	99.585
199.73	99.585
200.38	99.576
201.05	99.579
201.71	99.576
202.38	99.579
203.03	99.560
203.69	99.557
204.35	99.554
205.02	99.551
205.68	99.545
206.35	99.536
207.01	99.545
207.67	99.542
208.34	99.539
209.00	99.533
209.67	99.533
210.32	99.523
210.99	99.533
211.65	99.539
212.31	99.539
212.98	99.536
213.64	99.530
214.31	99.526
214.97	99.526
215.63	99.530
216.30	99.536
216.97	99.526
217.63	99.526
218.31	99.523
218.97	99.508
219.64	99.505
220.31	99.508
220.97	99.517
221.64	99.520
222.30	99.523
222.95	99.511
223.61	99.511
224.26	99.508
224.92	99.499
225.57	99.484
226.23	99.496
226.89	99.508
227.54	99.505
228.20	99.499
228.86	99.496
229.51	99.490
230.18	99.493
230.84	99.490
231.50	99.480
232.16	99.474
232.82	99.474
233.47	99.474
234.13	99.462
234.79	99.459
235.45	99.465
236.10	99.462
236.76	99.447
237.43	99.443
238.09	99.453
238.76	99.443
239.42	99.437
240.08	99.440
240.74	99.434
241.40	99.425
242.06	99.416
242.73	99.416
243.40	99.422
244.07	99.419
244.73	99.413
245.39	99.404
246.05	99.401
246.71	99.388
247.38	99.385
248.04	99.376
248.70	99.376
249.36	99.367
250.02	99.373
250.69	99.367
251.36	99.360
252.02	99.351
252.68	99.342
253.34	99.345
254.01	99.333
254.68	99.324
255.35	99.314
256.02	99.311
256.69	99.305
257.36	99.299
258.02	99.296
258.68	99.293
259.34	99.284
259.99	99.277
260.64	99.268
261.29	99.271
261.94	99.271
262.60	99.265
263.25	99.253
263.89	99.250
264.54	99.238
265.19	99.228
265.84	99.213
266.49	99.210
267.14	99.195
267.79	99.195
268.45	99.195
269.10	99.182
269.75	99.173
270.40	99.161
271.06	99.148
271.71	99.139
272.35	99.130
272.99	99.127
273.63	99.118
274.28	99.108
274.92	99.108
275.57	99.102
276.21	99.093
276.85	99.084
277.50	99.071
278.14	99.074
278.78	99.068
279.42	99.047
280.06	99.025
280.70	99.010
281.34	99.004
281.98	98.998
282.62	98.992
283.26	98.992
283.91	98.985
284.55	98.970
285.20	98.964
285.85	98.955
286.50	98.949
287.14	98.942
287.79	98.930
288.43	98.921
289.07	98.924
289.72	98.912
290.37	98.912
291.01	98.902
291.66	98.875
292.31	98.866
292.96	98.859
293.60	98.844
294.25	98.835
294.90	98.838
295.55	98.829
296.19	98.810
296.84	98.801
297.49	98.795
298.14	98.783
298.80	98.764
299.44	98.752
300.09	98.739
300.74	98.721
301.40	98.709
302.06	98.693
302.72	98.690
303.39	98.681
304.07	98.678
304.74	98.666
305.41	98.660
306.07	98.635
306.74	98.610
307.42	98.595
308.09	98.577
308.76	98.564
309.43	98.558
310.09	98.543
310.76	98.527
311.44	98.506
312.11	98.497
312.79	98.481
313.46	98.469
314.14	98.444
314.81	98.426
315.48	98.408
316.15	98.389
316.82	98.371
317.50	98.352
318.18	98.334
318.85	98.297
319.52	98.269
320.19	98.251
320.85	98.226
321.51	98.202
322.18	98.183
322.84	98.146
323.51	98.115
324.17	98.085
324.84	98.051
325.51	98.023
326.18	97.986
326.84	97.953
327.50	97.912
328.17	97.879
328.83	97.833
329.50	97.793
330.17	97.740
330.84	97.700
331.51	97.654
332.17	97.608
332.84	97.565
333.51	97.519
334.19	97.457
334.85	97.411
335.52	97.365
336.18	97.304
336.85	97.242
337.51	97.184
338.18	97.119
338.83	97.058
339.50	96.990
340.18	96.916
340.86	96.843
341.54	96.757
342.22	96.671
342.89	96.594
343.57	96.517
344.24	96.428
344.92	96.332
345.59	96.243
346.26	96.148
346.93	96.056
347.61	95.960
348.29	95.856
348.96	95.751
349.64	95.644
350.31	95.524
350.99	95.401
351.67	95.281
352.35	95.152
353.03	95.010
353.71	94.881
354.39	94.749
355.06	94.598
355.73	94.441
356.41	94.285
357.09	94.119
357.78	93.959
358.46	93.799
359.14	93.630
359.81	93.442
360.49	93.252
361.17	93.064
361.84	92.871
362.51	92.665
363.18	92.455
363.85	92.243
364.52	92.031
365.19	91.810
365.87	91.579
366.54	91.352
367.20	91.124
367.87	90.872
368.53	90.632
369.18	90.380
369.84	90.119
370.49	89.864
371.15	89.615
371.81	89.353
372.46	89.077
373.12	88.803
373.79	88.520
374.44	88.244
375.10	87.958
375.75	87.669
376.40	87.370
377.05	87.088
377.71	86.790
378.38	86.494
379.04	86.196
379.70	85.892
380.36	85.578
381.02	85.280
381.68	84.988
382.34	84.683
383.00	84.373
383.66	84.072
384.32	83.761
384.98	83.445
385.64	83.146
386.31	82.845
386.98	82.541
387.64	82.230
388.30	81.923
388.96	81.618
389.62	81.299
390.28	80.991
390.94	80.690
391.61	80.385
392.27	80.066
392.94	79.749
393.60	79.433
394.27	79.104
394.95	78.778
395.62	78.452
396.29	78.114
396.96	77.769
397.63	77.419
398.30	77.068
398.96	76.702
399.63	76.330
400.29	75.952
400.95	75.562
401.62	75.175
402.29	74.775
402.95	74.357
403.61	73.935
404.27	73.502
404.92	73.072
405.58	72.626
406.24	72.171
406.89	71.710
407.56	71.233
408.22	70.747
408.87	70.255
409.54	69.751
410.19	69.232
410.85	68.721
411.51	68.196
412.17	67.652
412.83	67.117
413.48	66.542
414.13	65.976
414.77	65.398
415.42	64.801
416.08	64.208
416.73	63.603
417.38	62.966
418.04	62.327
418.69	61.684
419.35	61.042
420.01	60.371
420.66	59.686
421.32	59.000
422.00	58.299
422.66	57.589
423.33	56.864
423.99	56.132
424.65	55.406
425.31	54.656
425.96	53.915
426.62	53.150
427.27	52.366
427.92	51.576
428.58	50.764
429.24	49.943
429.90	49.104
430.56	48.262
431.22	47.413
431.87	46.546
432.54	45.676
433.20	44.803
433.87	43.924
434.53	43.032
435.19	42.131
435.86	41.209
436.52	40.293
437.18	39.367
437.85	38.445
438.51	37.507
439.17	36.564
439.84	35.632
440.50	34.700
441.16	33.766
441.82	32.825
442.49	31.890
443.15	30.947
443.82	30.021
444.49	29.093
445.15	28.174
445.82	27.285
446.49	26.394
447.16	25.514
447.83	24.650
448.49	23.799
449.15	22.953
449.81	22.133
450.49	21.315
451.16	20.515
451.84	19.747
452.51	19.000
453.18	18.247
453.86	17.524
454.53	16.823
455.20	16.144
455.88	15.476
456.56	14.834
457.24	14.200
457.93	13.592
458.61	13.023
459.29	12.491
459.97	11.993
460.64	11.520
461.32	11.062
461.99	10.644
462.67	10.253
463.35	9.884
464.03	9.546
464.72	9.232
465.41	8.940
466.09	8.657
466.77	8.405
467.44	8.166
468.12	7.935
468.80	7.723
469.47	7.523
470.14	7.336
470.82	7.145
471.50	6.976
472.18	6.816
472.87	6.674
473.55	6.524
474.23	6.389
474.92	6.278
475.60	6.158
476.28	6.044
476.96	5.931
477.64	5.835
478.31	5.755
478.99	5.669
479.66	5.602
480.34	5.537
481.02	5.479
481.69	5.439
482.36	5.392
483.03	5.365
483.70	5.346
484.36	5.331
485.03	5.309
485.69	5.297
486.36	5.279
487.03	5.276
487.70	5.260
488.37	5.239
489.05	5.230
489.73	5.226
490.39	5.230
491.06	5.211
491.73	5.214
492.39	5.220
493.07	5.214
493.74	5.199
494.42	5.190
495.09	5.177
495.76	5.171
496.43	5.162
497.10	5.153
497.77	5.140
498.45	5.134
499.12	5.116
499.79	5.097
500.47	5.094
501.14	5.101
501.81	5.085
502.48	5.070
503.16	5.064
503.83	5.051
504.50	5.042
505.17	5.027
505.84	5.008
506.52	4.999
507.19	4.996
507.86	4.981
508.52	4.981
509.17	4.971
509.82	4.956
510.48	4.937
511.14	4.931
511.81	4.928
512.48	4.913
513.15	4.901
513.81	4.888
514.48	4.879
515.14	4.867
515.80	4.867
516.46	4.861
517.13	4.851
517.80	4.839
518.46	4.821
519.12	4.793
519.78	4.775
520.44	4.768
521.08	4.756
521.73	4.738
522.38	4.725
523.04	4.725
523.70	4.701
524.36	4.692
525.03	4.685
525.70	4.673
526.36	4.664
527.02	4.636
527.69	4.627
528.35	4.618
529.00	4.615
529.66	4.605
530.33	4.590
531.01	4.578
531.69	4.547
532.36	4.535
533.03	4.535
533.69	4.513
534.35	4.501
535.01	4.492
535.66	4.479
536.32	4.455
536.99	4.446
537.66	4.427
538.33	4.409
539.01	4.390
539.68	4.375
540.35	4.372
541.01	4.357
541.67	4.347
542.33	4.338
543.00	4.319
543.66	4.298
544.32	4.289
544.98	4.280
545.64	4.264
546.31	4.252
546.98	4.233
547.66	4.224
548.33	4.206
549.00	4.194
549.68	4.172
550.35	4.150
551.02	4.154
551.69	4.150
552.34	4.141
553.00	4.120
553.65	4.092
554.31	4.086
554.97	4.086
555.64	4.080
556.31	4.055
556.99	4.043
557.66	4.027
558.33	4.012
559.00	4.006
559.67	3.981
560.33	3.963
561.01	3.951
561.68	3.941
562.36	3.923
563.04	3.902
563.72	3.883
564.39	3.880
565.07	3.868
565.74	3.846
566.41	3.834
567.07	3.815
567.74	3.809
568.41	3.800
569.08	3.785
569.75	3.763
570.42	3.763
571.09	3.748
571.77	3.726
572.44	3.708
573.12	3.702
573.79	3.689
574.46	3.683
575.13	3.683
575.81	3.668
576.49	3.646
577.18	3.643
577.85	3.616
578.53	3.612
579.20	3.612
579.88	3.582
580.57	3.569
581.26	3.566
581.94	3.554
582.63	3.542
583.32	3.523
584.01	3.511
584.70	3.489
585.39	3.471
586.07	3.462
586.75	3.453
587.45	3.437
588.13	3.428
588.47	3.425