File: 论文/tga txt new/30%10mm.txt
Filename:	D:\TGAdata\„∆√ŒœÈ\Ã∆–°º™\30%10mm.t6d

Temperature (°„C)	Weight % (%)
29.79	100.022
29.79	100.032
29.79	100.045
29.78	100.045
29.77	100.045
29.77	100.030
29.80	100.028
29.87	100.028
29.97	100.030
30.11	100.037
30.31	100.047
30.56	100.049
30.88	100.057
31.24	100.067
31.64	100.073
32.08	100.067
32.55	100.069
33.05	100.075
33.56	100.071
34.09	100.071
34.64	100.069
35.21	100.061
35.79	100.061
36.38	100.067
36.98	100.061
37.59	100.063
38.20	100.063
38.83	100.061
39.46	100.061
40.10	100.063
40.74	100.063
41.38	100.061
42.03	100.071
42.68	100.069
43.33	100.065
43.99	100.057
44.65	100.053
45.31	100.055
45.98	100.057
46.64	100.059
47.30	100.061
47.97	100.057
48.64	100.053
49.30	100.057
49.97	100.055
50.64	100.057
51.31	100.055
51.98	100.059
52.66	100.053
53.33	100.051
54.01	100.047
54.69	100.047
55.37	100.042
56.05	100.045
56.73	100.042
57.41	100.034
58.09	100.032
58.77	100.034
59.45	100.026
60.13	100.022
60.81	100.022
61.49	100.016
62.17	100.012
62.86	100.010
63.55	100.002
64.23	100.000
64.91	100.010
65.59	100.004
66.28	100.010
66.96	100.006
67.65	100.004
68.34	99.992
69.03	99.986
69.71	99.986
70.40	99.982
71.08	99.978
71.77	99.978
72.46	99.978
73.14	99.972
73.83	99.970
74.52	99.968
75.21	99.960
75.89	99.955
76.58	99.949
77.27	99.947
77.95	99.945
78.64	99.945
79.32	99.941
80.00	99.937
80.69	99.937
81.37	99.937
82.06	99.935
82.74	99.929
83.41	99.927
84.10	99.923
84.78	99.911
85.46	99.909
86.14	99.903
86.83	99.893
87.52	99.893
88.20	99.895
88.89	99.895
89.57	99.893
90.26	99.884
90.95	99.879
91.63	99.884
92.32	99.889
93.00	99.887
93.69	99.880
94.38	99.876
95.07	99.876
95.76	99.876
96.44	99.868
97.12	99.866
97.81	99.864
98.49	99.854
99.17	99.840
99.86	99.836
100.54	99.834
101.23	99.838
101.91	99.832
102.59	99.830
103.27	99.828
103.96	99.824
104.65	99.826
105.34	99.826
106.02	99.822
106.70	99.816
107.38	99.810
108.05	99.805
108.71	99.805
109.37	99.805
110.04	99.801
110.70	99.795
111.35	99.791
112.00	99.787
112.65	99.781
113.30	99.779
113.95	99.777
114.59	99.775
115.24	99.767
115.88	99.765
116.53	99.765
117.17	99.759
117.82	99.751
118.46	99.745
119.11	99.739
119.74	99.735
120.39	99.735
121.03	99.731
121.67	99.733
122.31	99.729
122.95	99.726
123.59	99.724
124.25	99.720
124.90	99.714
125.56	99.706
126.21	99.704
126.87	99.698
127.53	99.692
128.18	99.690
128.84	99.694
129.49	99.692
130.14	99.696
130.79	99.692
131.44	99.678
132.09	99.680
132.74	99.670
133.39	99.662
134.05	99.686
134.70	99.718
135.35	99.716
136.01	99.694
136.66	99.660
137.31	99.652
137.96	99.647
138.61	99.635
139.26	99.631
139.91	99.627
140.56	99.621
141.21	99.617
141.86	99.613
142.51	99.613
143.16	99.615
143.81	99.611
144.46	99.621
145.11	99.637
145.76	99.633
146.41	99.631
147.06	99.627
147.70	99.603
148.35	99.589
148.99	99.585
149.63	99.583
150.28	99.579
150.92	99.575
151.56	99.568
152.20	99.564
152.84	99.568
153.48	99.564
154.12	99.560
154.76	99.554
155.39	99.554
156.03	99.550
156.66	99.546
157.30	99.540
157.94	99.538
158.58	99.530
159.22	99.534
159.86	99.532
160.50	99.526
161.14	99.524
161.78	99.516
162.41	99.518
163.05	99.514
163.69	99.506
164.33	99.498
164.98	99.494
165.63	99.489
166.28	99.487
166.92	99.487
167.57	99.481
168.22	99.481
168.85	99.483
169.50	99.481
170.14	99.477
170.79	99.471
171.42	99.465
172.06	99.459
172.69	99.459
173.33	99.453
173.97	99.455
174.62	99.459
175.27	99.461
175.92	99.475
176.57	99.500
177.22	99.506
177.88	99.502
178.53	99.498
179.17	99.491
179.82	99.481
180.46	99.469
181.11	99.443
181.77	99.433
182.42	99.419
183.09	99.415
183.75	99.421
184.41	99.419
185.07	99.410
185.73	99.408
186.39	99.410
187.05	99.408
187.72	99.406
188.38	99.406
189.05	99.400
189.73	99.396
190.40	99.392
191.07	99.386
191.74	99.384
192.40	99.386
193.07	99.386
193.74	99.384
194.40	99.382
195.08	99.378
195.75	99.378
196.41	99.378
197.08	99.372
197.75	99.370
198.41	99.372
199.08	99.372
199.74	99.368
200.40	99.366
201.07	99.366
201.73	99.366
202.40	99.364
203.08	99.358
203.74	99.356
204.41	99.356
205.07	99.354
205.73	99.352
206.38	99.354
207.05	99.348
207.71	99.346
208.38	99.346
209.04	99.344
209.70	99.346
210.36	99.344
211.03	99.338
211.69	99.338
212.36	99.346
213.02	99.344
213.69	99.338
214.36	99.336
215.02	99.333
215.68	99.329
216.34	99.329
217.00	99.323
217.66	99.321
218.32	99.319
218.99	99.319
219.65	99.321
220.32	99.317
220.99	99.313
221.66	99.315
222.33	99.313
222.98	99.309
223.63	99.311
224.29	99.315
224.95	99.315
225.61	99.313
226.27	99.309
226.92	99.309
227.58	99.309
228.24	99.305
228.90	99.299
229.56	99.297
230.21	99.291
230.87	99.291
231.52	99.289
232.18	99.283
232.84	99.287
233.50	99.285
234.16	99.285
234.83	99.285
235.50	99.281
236.16	99.279
236.83	99.279
237.50	99.277
238.16	99.267
238.82	99.265
239.47	99.267
240.14	99.267
240.80	99.267
241.46	99.265
242.12	99.261
242.79	99.259
243.45	99.252
244.11	99.244
244.78	99.238
245.45	99.236
246.11	99.232
246.78	99.228
247.45	99.226
248.12	99.224
248.78	99.220
249.44	99.218
250.11	99.208
250.77	99.204
251.43	99.200
252.09	99.192
252.76	99.186
253.44	99.186
254.11	99.186
254.77	99.178
255.44	99.171
256.11	99.167
256.78	99.161
257.44	99.157
258.10	99.147
258.75	99.147
259.40	99.141
260.05	99.135
260.70	99.127
261.36	99.121
262.03	99.113
262.68	99.109
263.33	99.102
263.98	99.096
264.62	99.088
265.27	99.080
265.92	99.074
266.56	99.064
267.21	99.054
267.87	99.040
268.51	99.032
269.16	99.028
269.82	99.015
270.48	99.009
271.13	99.005
271.77	98.999
272.42	98.989
273.06	98.983
273.71	98.979
274.35	98.967
275.00	98.949
275.66	98.936
276.31	98.924
276.95	98.914
277.59	98.904
278.24	98.886
278.87	98.870
279.50	98.859
280.15	98.849
280.80	98.833
281.44	98.829
282.09	98.861
282.74	98.874
283.39	98.870
284.04	98.845
284.68	98.831
285.34	98.821
286.00	98.760
286.65	98.732
287.30	98.714
287.95	98.695
288.60	98.673
289.25	98.663
289.91	98.643
290.56	98.628
291.21	98.612
291.86	98.590
292.51	98.574
293.17	98.564
293.83	98.539
294.48	98.521
295.12	98.511
295.77	98.495
296.42	98.474
297.07	98.456
297.71	98.438
298.35	98.422
298.99	98.406
299.64	98.391
300.29	98.375
300.95	98.363
301.61	98.341
302.28	98.323
302.94	98.304
303.61	98.284
304.27	98.262
304.94	98.240
305.61	98.219
306.29	98.199
306.97	98.181
307.64	98.158
308.31	98.140
308.99	98.114
309.66	98.085
310.33	98.061
311.00	98.043
311.66	98.017
312.33	97.988
312.99	97.964
313.66	97.934
314.33	97.911
315.01	97.885
315.68	97.853
316.35	97.822
317.02	97.794
317.69	97.769
318.37	97.739
319.03	97.709
319.69	97.676
320.35	97.644
321.02	97.615
321.68	97.581
322.34	97.544
323.00	97.506
323.67	97.472
324.34	97.435
325.02	97.397
325.69	97.358
326.36	97.322
327.04	97.283
327.70	97.243
328.37	97.198
329.04	97.152
329.70	97.107
330.37	97.062
331.04	97.020
331.71	96.963
332.38	96.917
333.06	96.868
333.73	96.809
334.41	96.750
335.08	96.692
335.76	96.641
336.44	96.584
337.11	96.527
337.78	96.465
338.46	96.406
339.13	96.337
339.80	96.266
340.47	96.195
341.14	96.124
341.82	96.047
342.49	95.960
343.16	95.875
343.81	95.784
344.45	95.691
345.10	95.600
345.76	95.505
346.42	95.405
347.08	95.306
347.74	95.209
348.40	95.109
349.08	95.000
349.76	94.885
350.45	94.781
351.14	94.670
351.83	94.546
352.52	94.433
353.20	94.317
353.89	94.194
354.56	94.066
355.23	93.930
355.90	93.801
356.58	93.669
357.26	93.529
357.94	93.379
358.61	93.231
359.30	93.079
359.98	92.917
360.67	92.751
361.36	92.579
362.03	92.411
362.70	92.227
363.36	92.042
364.02	91.852
364.69	91.663
365.36	91.469
366.04	91.295
366.71	91.102
367.38	90.885
368.04	90.677
368.70	90.482
369.37	90.292
370.03	90.087
370.68	89.870
371.33	89.631
371.98	89.386
372.64	89.149
373.29	88.912
373.95	88.673
374.61	88.428
375.27	88.179
375.93	87.930
376.59	87.682
377.25	87.431
377.90	87.176
378.55	86.919
379.20	86.659
379.85	86.398
380.50	86.135
381.16	85.871
381.82	85.606
382.48	85.344
383.15	85.081
383.81	84.824
384.46	84.566
385.13	84.303
385.78	84.038
386.45	83.782
387.10	83.525
387.75	83.270
388.41	83.025
389.07	82.778
389.73	82.542
390.40	82.308
391.07	82.071
391.72	81.844
392.38	81.613
393.05	81.380
393.71	81.153
394.38	80.926
395.04	80.705
395.71	80.482
396.37	80.261
397.03	80.036
397.69	79.810
398.35	79.583
399.01	79.350
399.68	79.111
400.34	78.874
400.99	78.632
401.65	78.381
402.32	78.126
402.98	77.871
403.64	77.605
404.29	77.332
404.96	77.064
405.62	76.783
406.27	76.489
406.92	76.195
407.58	75.895
408.23	75.586
408.88	75.276
409.55	74.959
410.20	74.633
410.85	74.305
411.51	73.985
412.17	73.683
412.83	73.351
413.49	72.988
414.14	72.626
414.79	72.220
415.45	71.819
416.11	71.432
416.77	71.041
417.42	70.642
418.07	70.231
418.74	69.818
419.39	69.392
420.04	68.963
420.71	68.525
421.36	68.079
422.01	67.619
422.67	67.150
423.34	66.671
423.99	66.193
424.64	65.703
425.31	65.203
425.97	64.686
426.62	64.169
427.29	63.647
427.95	63.108
428.60	62.557
429.26	62.000
429.92	61.430
430.57	60.855
431.22	60.257
431.88	59.660
432.55	59.042
433.20	58.422
433.86	57.790
434.51	57.150
435.17	56.491
435.84	55.823
436.47	55.144
437.13	54.447
437.79	53.728
438.46	53.000
439.11	52.269
439.76	51.509
440.43	50.750
441.08	49.978
441.74	49.200
442.39	48.402
443.06	47.601
443.71	46.805
444.38	45.979
445.04	45.144
445.70	44.307
446.37	43.446
447.03	42.585
447.68	41.742
448.33	40.873
448.99	39.992
449.66	39.098
450.32	38.201
450.98	37.293
451.66	36.396
452.32	35.504
452.98	34.607
453.63	33.699
454.29	32.802
454.95	31.902
455.62	31.015
456.28	30.128
456.94	29.240
457.59	28.357
458.26	27.492
458.93	26.629
459.59	25.772
460.26	24.923
460.93	24.084
461.61	23.256
462.28	22.435
462.94	21.631
463.61	20.835
464.28	20.055
464.97	19.299
465.65	18.554
466.33	17.808
467.01	17.091
467.70	16.392
468.39	15.719
469.08	15.063
469.76	14.433
470.46	13.827
471.15	13.240
471.85	12.664
472.54	12.121
473.25	11.615
473.95	11.126
474.62	10.667
475.31	10.227
476.00	9.816
476.68	9.441
477.36	9.086
478.05	8.754
478.74	8.456
479.44	8.171
480.13	7.899
480.82	7.642
481.51	7.403
482.20	7.180
482.89	6.981
483.58	6.789
484.27	6.617
484.95	6.453
485.64	6.303
486.32	6.165
487.00	6.033
487.68	5.920
488.36	5.812
489.04	5.717
489.72	5.640
490.40	5.573
491.08	5.523
491.76	5.490
492.43	5.462
493.10	5.436
493.77	5.415
494.44	5.395
495.11	5.375
495.79	5.363
496.46	5.349
497.14	5.338
497.82	5.328
498.49	5.316
499.17	5.302
499.84	5.290
500.51	5.282
501.17	5.270
501.84	5.261
502.51	5.245
503.18	5.229
503.86	5.215
504.54	5.203
505.21	5.191
505.88	5.182
506.55	5.170
507.22	5.154
507.89	5.138
508.56	5.126
509.23	5.120
509.90	5.103
510.57	5.089
511.23	5.077
511.89	5.065
512.54	5.053
513.19	5.049
513.86	5.031
514.53	5.028
515.19	5.012
515.86	4.996
516.52	4.986
517.19	4.978
517.87	4.962
518.52	4.955
519.18	4.945
519.84	4.931
520.50	4.915
521.16	4.901
521.83	4.887
522.49	4.870
523.15	4.868
523.80	4.846
524.46	4.834
525.11	4.826
525.78	4.808
526.43	4.802
527.10	4.791
527.76	4.775
528.41	4.761
529.07	4.747
529.73	4.733
530.39	4.718
531.06	4.708
531.72	4.698
532.39	4.686
533.05	4.672
533.71	4.662
534.37	4.639
535.03	4.633
535.70	4.619
536.36	4.609
537.04	4.593
537.70	4.573
538.37	4.564
539.04	4.554
539.70	4.536
540.36	4.526
541.02	4.518
541.69	4.512
542.36	4.496
543.02	4.490
543.70	4.477
544.38	4.455
545.04	4.441
545.71	4.415
546.38	4.398
547.03	4.396
547.69	4.394
548.35	4.386
549.03	4.370
549.71	4.362
550.37	4.348
551.04	4.332
551.72	4.311
552.41	4.297
553.06	4.291
553.72	4.281
554.38	4.267
555.04	4.254
555.72	4.240
556.40	4.226
557.08	4.216
557.76	4.206
558.44	4.194
559.11	4.182
559.78	4.161
560.45	4.145
561.13	4.137
561.81	4.123
562.48	4.105
563.14	4.094
563.81	4.086
564.49	4.068
565.16	4.056
565.83	4.038
566.50	4.032
567.17	4.026
567.86	4.009
568.54	3.997
569.22	3.991
569.90	3.977
570.56	3.975
571.22	3.967
571.89	3.949
572.55	3.932
573.21	3.928
573.88	3.904
574.55	3.902
575.24	3.890
575.92	3.884
576.59	3.874
577.27	3.864
577.96	3.849
578.65	3.835
579.35	3.827
580.05	3.819
580.74	3.805
581.44	3.797
582.14	3.780
582.82	3.760
583.52	3.748
584.23	3.736
584.93	3.722
585.61	3.705
586.27	3.699
586.96	3.679
587.65	3.671
588.34	3.655
588.70	3.647