File: 论文/tga txt new/chunPP.txt
Filename:	D:\TGAdata\ãÆÃÎÏé\ÌÆÐ¡¼ª\´¿PP.t6d

Temperature (¡ãC)	Weight % (%)
32.61	99.993
32.59	99.977
32.56	99.964
32.54	99.981
32.52	99.977
32.49	100.042
32.47	100.062
32.44	100.046
32.42	100.058
32.42	100.050
32.45	100.062
32.52	100.054
32.62	100.070
32.78	100.058
33.00	100.074
33.28	100.098
33.62	100.102
34.01	100.123
34.44	100.098
34.90	100.082
35.38	100.094
35.88	100.094
36.43	100.078
36.97	100.078
37.54	100.082
38.11	100.090
38.70	100.094
39.30	100.086
39.91	100.082
40.53	100.086
41.15	100.090
41.78	100.086
42.42	100.090
43.06	100.086
43.70	100.090
44.35	100.106
45.01	100.094
45.66	100.082
46.31	100.090
46.97	100.078
47.63	100.078
48.30	100.086
48.96	100.098
49.63	100.086
50.30	100.094
50.97	100.090
51.64	100.082
52.30	100.078
52.98	100.094
53.66	100.094
54.34	100.090
55.02	100.086
55.70	100.086
56.39	100.102
57.07	100.115
57.75	100.115
58.43	100.106
59.11	100.119
59.80	100.110
60.48	100.106
61.16	100.106
61.84	100.110
62.53	100.102
63.21	100.110
63.88	100.106
64.57	100.110
65.25	100.102
65.94	100.090
66.62	100.086
67.31	100.094
68.00	100.098
68.69	100.106
69.38	100.090
70.06	100.082
70.76	100.094
71.45	100.102
72.14	100.078
72.83	100.082
73.52	100.074
74.21	100.074
74.90	100.062
75.59	100.066
76.28	100.086
76.96	100.098
77.65	100.090
78.34	100.074
79.03	100.074
79.72	100.070
80.41	100.078
81.10	100.066
81.79	100.054
82.47	100.050
83.16	100.050
83.84	100.050
84.52	100.050
85.21	100.046
85.89	100.050
86.58	100.046
87.26	100.033
87.95	100.033
88.64	100.025
89.32	100.013
90.00	100.017
90.68	100.025
91.36	100.033
92.05	100.021
92.73	100.021
93.42	100.017
94.10	100.013
94.78	100.009
95.47	100.017
96.15	100.013
96.84	100.005
97.53	100.013
98.22	100.009
98.90	100.009
99.58	100.001
100.27	99.993
100.95	99.997
101.63	99.997
102.32	99.997
103.01	99.985
103.70	99.985
104.39	99.977
105.08	99.985
105.76	99.989
106.43	99.981
107.11	99.973
107.78	99.993
108.44	99.993
109.11	100.001
109.77	99.993
110.43	99.989
111.09	99.989
111.74	99.981
112.40	99.989
113.06	99.997
113.71	100.001
114.36	99.989
115.01	99.989
115.66	99.977
116.31	99.981
116.96	99.985
117.60	99.997
118.25	100.001
118.89	100.001
119.54	99.993
120.19	99.981
120.83	99.977
121.47	99.993
122.11	99.973
122.75	99.973
123.39	99.981
124.05	99.989
124.71	99.997
125.37	99.989
126.03	99.968
126.70	99.968
127.36	99.973
128.02	99.977
128.68	99.989
129.34	99.993
130.00	99.989
130.66	99.993
131.32	99.989
131.97	99.993
132.63	99.993
133.29	99.981
133.94	99.985
134.59	99.993
135.24	99.989
135.90	99.981
136.55	99.981
137.19	99.993
137.83	99.985
138.47	100.001
139.11	99.993
139.76	99.989
140.41	100.001
141.05	99.997
141.69	99.989
142.34	99.973
142.98	99.977
143.62	99.968
144.26	99.977
144.91	99.981
145.57	99.989
146.22	99.981
146.86	99.985
147.50	99.985
148.14	99.985
148.79	99.977
149.44	99.977
150.09	99.973
150.73	99.985
151.38	99.993
152.02	99.993
152.66	99.981
153.31	99.977
153.95	99.981
154.59	99.973
155.23	99.964
155.87	99.981
156.52	99.981
157.16	99.977
157.80	99.985
158.45	100.005
159.09	99.993
159.73	99.997
160.37	100.013
161.01	100.001
161.65	100.001
162.29	99.997
162.94	99.989
163.58	99.989
164.22	99.981
164.86	99.981
165.50	99.989
166.14	99.985
166.78	99.989
167.42	100.001
168.06	99.997
168.70	99.981
169.35	99.985
169.99	99.985
170.64	99.993
171.28	99.993
171.92	99.989
172.56	99.977
173.20	99.977
173.85	99.993
174.49	99.989
175.14	99.989
175.79	99.985
176.45	99.985
177.10	99.989
177.76	99.989
178.41	99.977
179.08	99.985
179.74	99.981
180.41	99.977
181.07	99.981
181.74	99.973
182.41	99.964
183.08	99.960
183.75	99.973
184.41	99.973
185.08	99.964
185.75	99.952
186.41	99.964
187.06	99.977
187.72	99.973
188.38	99.956
189.05	99.948
189.71	99.956
190.36	99.968
191.01	99.973
191.66	99.956
192.32	99.948
192.98	99.948
193.64	99.952
194.30	99.956
194.96	99.964
195.63	99.956
196.29	99.956
196.95	99.944
197.60	99.968
198.26	99.960
198.92	99.944
199.58	99.940
200.25	99.952
200.91	99.948
201.57	99.952
202.23	99.956
202.90	99.944
203.56	99.924
204.23	99.916
204.89	99.912
205.56	99.928
206.22	99.912
206.89	99.916
207.56	99.928
208.22	99.920
208.88	99.924
209.54	99.916
210.21	99.912
210.87	99.928
211.54	99.924
212.21	99.916
212.88	99.916
213.54	99.912
214.21	99.912
214.87	99.920
215.53	99.920
216.18	99.924
216.82	99.920
217.47	99.916
218.14	99.904
218.81	99.900
219.49	99.896
220.17	99.891
220.85	99.900
221.52	99.900
222.18	99.896
222.84	99.875
223.49	99.883
224.15	99.891
224.81	99.883
225.48	99.883
226.13	99.883
226.79	99.883
227.45	99.879
228.11	99.875
228.78	99.871
229.44	99.863
230.11	99.867
230.77	99.875
231.44	99.883
232.09	99.875
232.75	99.879
233.40	99.883
234.06	99.879
234.72	99.883
235.38	99.883
236.04	99.875
236.70	99.875
237.37	99.867
238.04	99.871
238.70	99.859
239.37	99.847
240.03	99.847
240.70	99.843
241.36	99.847
242.02	99.847
242.68	99.851
243.34	99.855
244.01	99.843
244.67	99.843
245.33	99.847
246.00	99.843
246.67	99.843
247.34	99.847
248.01	99.839
248.68	99.831
249.35	99.831
250.01	99.822
250.68	99.826
251.35	99.822
252.01	99.831
252.67	99.835
253.33	99.818
253.99	99.802
254.66	99.806
255.33	99.802
256.01	99.790
256.68	99.786
257.35	99.790
258.00	99.798
258.66	99.794
259.31	99.786
259.96	99.766
260.62	99.758
261.27	99.762
261.92	99.758
262.57	99.766
263.23	99.770
263.88	99.770
264.53	99.766
265.18	99.762
265.83	99.754
266.48	99.758
267.13	99.762
267.78	99.762
268.43	99.758
269.08	99.762
269.74	99.766
270.41	99.758
271.07	99.754
271.71	99.741
272.36	99.745
273.01	99.733
273.65	99.717
274.29	99.709
274.93	99.693
275.57	99.701
276.23	99.721
276.88	99.721
277.53	99.713
278.18	99.709
278.82	99.713
279.46	99.705
280.11	99.693
280.75	99.701
281.40	99.709
282.05	99.701
282.69	99.693
283.34	99.680
283.98	99.668
284.62	99.664
285.26	99.676
285.90	99.680
286.55	99.673
287.20	99.680
287.86	99.680
288.51	99.680
289.14	99.680
289.79	99.676
290.43	99.676
291.08	99.673
291.73	99.664
292.38	99.664
293.03	99.656
293.67	99.664
294.32	99.664
294.97	99.664
295.62	99.668
296.27	99.668
296.91	99.656
297.56	99.652
298.21	99.648
298.85	99.636
299.50	99.644
300.15	99.648
300.81	99.636
301.47	99.628
302.13	99.648
302.79	99.640
303.45	99.628
304.13	99.640
304.79	99.616
305.46	99.612
306.13	99.612
306.80	99.603
307.47	99.591
308.14	99.575
308.81	99.575
309.49	99.587
310.17	99.579
310.85	99.571
311.51	99.567
312.19	99.555
312.86	99.551
313.54	99.535
314.22	99.518
314.89	99.518
315.56	99.494
316.24	99.498
316.91	99.494
317.58	99.490
318.25	99.478
318.92	99.461
319.59	99.425
320.26	99.413
320.93	99.405
321.60	99.384
322.27	99.360
322.95	99.332
323.62	99.311
324.30	99.307
324.97	99.307
325.65	99.263
326.31	99.238
326.98	99.218
327.66	99.214
328.32	99.190
328.98	99.173
329.65	99.153
330.32	99.125
330.99	99.092
331.66	99.076
332.33	99.040
333.00	99.019
333.67	98.991
334.33	98.954
335.01	98.942
335.69	98.914
336.36	98.861
337.04	98.816
337.71	98.780
338.38	98.743
339.05	98.695
339.72	98.634
340.38	98.585
341.05	98.520
341.72	98.476
342.40	98.411
343.07	98.362
343.76	98.297
344.44	98.232
345.12	98.183
345.80	98.102
346.47	98.033
347.15	97.960
347.82	97.883
348.49	97.802
349.17	97.713
349.84	97.636
350.53	97.555
351.20	97.449
351.87	97.348
352.55	97.250
353.22	97.145
353.90	97.031
354.56	96.918
355.24	96.824
355.91	96.715
356.59	96.585
357.27	96.451
357.96	96.334
358.64	96.204
359.33	96.070
360.02	95.920
360.70	95.774
361.38	95.628
362.06	95.478
362.74	95.319
363.40	95.165
364.07	95.007
364.74	94.824
365.40	94.646
366.06	94.480
366.73	94.289
367.39	94.098
368.05	93.907
368.72	93.709
369.39	93.506
370.05	93.291
370.72	93.076
371.38	92.841
372.05	92.605
372.71	92.366
373.36	92.110
374.02	91.875
374.68	91.640
375.33	91.384
375.99	91.112
376.66	90.833
377.33	90.540
377.99	90.252
378.65	89.960
379.31	89.668
379.98	89.368
380.64	89.059
381.31	88.739
381.97	88.427
382.63	88.106
383.29	87.770
383.95	87.420
384.61	87.072
385.27	86.710
385.94	86.358
386.60	85.996
387.26	85.635
387.91	85.258
388.57	84.865
389.24	84.471
389.90	84.061
390.57	83.643
391.24	83.221
391.90	82.796
392.56	82.362
393.23	81.911
393.89	81.445
394.55	80.978
395.21	80.524
395.87	80.041
396.54	79.550
397.21	79.059
397.89	78.536
398.56	78.012
399.23	77.485
399.91	76.974
400.58	76.422
401.25	75.867
401.91	75.315
402.58	74.747
403.24	74.171
403.90	73.586
404.56	72.990
405.23	72.410
405.90	71.822
406.56	71.205
407.22	70.576
407.89	69.927
408.55	69.254
409.22	68.588
409.88	67.911
410.53	67.241
411.18	66.564
411.84	65.870
412.50	65.152
413.16	64.430
413.82	63.712
414.47	62.986
415.13	62.231
415.77	61.468
416.42	60.686
417.07	59.902
417.74	59.132
418.39	58.324
419.06	57.521
419.72	56.714
420.38	55.898
421.04	55.054
421.70	54.199
422.36	53.343
423.03	52.474
423.69	51.586
424.36	50.689
425.02	49.777
425.68	48.851
426.34	47.918
427.00	46.973
427.66	46.028
428.32	45.042
428.99	44.064
429.66	43.046
430.34	42.040
431.01	41.026
431.67	39.987
432.34	38.940
433.00	37.894
433.66	36.819
434.33	35.748
434.99	34.644
435.65	33.541
436.33	32.441
437.00	31.342
437.67	30.218
438.35	29.131
439.02	28.027
439.67	26.904
440.33	25.759
441.00	24.603
441.67	23.459
442.35	22.335
443.02	21.204
443.69	20.076
444.36	18.960
445.03	17.885
445.70	16.761
446.38	15.666
447.05	14.579
447.72	13.528
448.38	12.530
449.05	11.589
449.72	10.672
450.38	9.804
451.06	9.005
451.74	8.291
452.42	7.649
453.09	7.090
453.76	6.570
454.43	6.104
455.10	5.694
455.76	5.317
456.44	4.968
457.12	4.660
457.81	4.384
458.48	4.140
459.16	3.889
459.85	3.702
460.55	3.511
461.24	3.349
461.92	3.199
462.59	3.073
463.27	2.931
463.96	2.805
464.64	2.700
465.32	2.599
466.00	2.501
466.68	2.416
467.36	2.343
468.02	2.286
468.69	2.209
469.38	2.152
470.06	2.096
470.73	2.039
471.41	1.998
472.08	1.957
472.76	1.921
473.43	1.905
474.09	1.885
474.76	1.876
475.43	1.868
476.10	1.856
476.78	1.860
477.45	1.856
478.13	1.840
478.80	1.840
479.47	1.836
480.14	1.840
480.80	1.832
481.45	1.840
482.11	1.856
482.78	1.844
483.44	1.836
484.11	1.824
484.77	1.820
485.44	1.816
486.11	1.812
486.78	1.812
487.44	1.824
488.11	1.812
488.78	1.840
489.45	1.844
490.12	1.848
490.78	1.832
491.43	1.848
492.09	1.856
492.75	1.864
493.42	1.856
494.10	1.864
494.78	1.852
495.47	1.852
496.15	1.844
496.82	1.856
497.50	1.856
498.18	1.852
498.85	1.852
499.53	1.844
500.20	1.840
500.87	1.844
501.54	1.836
502.22	1.816
502.90	1.812
503.58	1.816
504.25	1.812
504.93	1.804
505.61	1.799
506.28	1.816
506.96	1.820
507.63	1.824
508.30	1.820
508.98	1.820
509.65	1.824
510.32	1.820
510.99	1.820
511.65	1.816
512.31	1.820
512.97	1.824
513.63	1.804
514.30	1.804
514.97	1.787
515.63	1.795
516.29	1.795
516.94	1.795
517.60	1.808
518.26	1.795
518.92	1.779
519.60	1.791
520.26	1.787
520.91	1.791
521.57	1.775
522.24	1.767
522.91	1.763
523.57	1.751
524.23	1.763
524.90	1.783
525.57	1.775
526.23	1.783
526.88	1.787
527.54	1.779
528.19	1.771
528.85	1.779
529.52	1.783
530.18	1.783
530.85	1.787
531.51	1.783
532.17	1.783
532.83	1.779
533.51	1.783
534.20	1.771
534.85	1.779
535.51	1.783
536.17	1.779
536.85	1.759
537.51	1.759
538.17	1.763
538.84	1.763
539.51	1.767
540.18	1.763
540.83	1.783
541.49	1.795
542.16	1.795
542.82	1.787
543.48	1.787
544.14	1.783
544.81	1.795
545.47	1.787
546.14	1.804
546.80	1.804
547.48	1.812
548.14	1.795
548.80	1.787
549.46	1.787
550.12	1.783
550.79	1.779
551.47	1.779
552.14	1.771
552.82	1.767
553.48	1.775
554.14	1.779
554.82	1.775
555.49	1.755
556.16	1.747
556.83	1.747
557.50	1.743
558.17	1.759
558.84	1.767
559.51	1.771
560.19	1.783
560.87	1.787
561.54	1.775
562.21	1.771
562.86	1.755
563.52	1.759
564.19	1.763
564.86	1.755
565.53	1.751
566.21	1.734
566.89	1.734
567.56	1.726
568.22	1.751
568.88	1.751
569.53	1.734
570.19	1.751
570.86	1.747
571.54	1.747
572.21	1.739
572.89	1.747
573.58	1.743
574.26	1.743
574.93	1.747
575.58	1.755
576.24	1.747
576.92	1.743
577.60	1.718
578.26	1.722
578.93	1.722
579.61	1.718
580.29	1.722
580.97	1.730
581.64	1.726
582.35	1.734
583.05	1.739
583.75	1.734
584.43	1.726
585.10	1.718
585.79	1.734
586.50	1.718
587.17	1.730
587.84	1.734
588.54	1.730
589.23	1.734
589.93	1.722
590.61	1.730
591.28	1.734
591.94	1.730
592.61	1.743
593.28	1.751
593.94	1.751
594.61	1.759
595.30	1.747
595.99	1.747
596.68	1.739
597.36	1.726
598.04	1.743
598.74	1.743
599.43	1.739
600.13	1.710
600.81	1.710
601.51	1.710
602.20	1.726
602.88	1.734
603.56	1.739
604.24	1.730
604.93	1.730
605.63	1.726
606.31	1.722
607.01	1.710
607.73	1.718
608.45	1.714
609.16	1.718
609.87	1.706
610.57	1.690
611.25	1.694
611.93	1.706
612.60	1.706
613.26	1.706
613.92	1.694
614.59	1.698
615.26	1.718
615.95	1.714
616.64	1.710
617.35	1.706
618.06	1.686
618.76	1.698
619.43	1.714
620.10	1.714
620.76	1.706
621.42	1.702
622.07	1.710
622.75	1.714
623.43	1.702
624.13	1.702
624.84	1.706
625.54	1.698
626.22	1.694
626.89	1.702
627.56	1.702
628.23	1.698
628.89	1.698
629.54	1.710
630.20	1.726
630.87	1.710
631.56	1.710
632.24	1.718
632.91	1.710
633.57	1.710
634.22	1.710
634.88	1.714
635.56	1.722
636.24	1.726
636.91	1.718
637.59	1.710
638.25	1.714
638.92	1.702
639.60	1.702
640.28	1.714
640.96	1.710
641.62	1.690
642.29	1.686
642.96	1.690
643.66	1.682
644.38	1.694
645.09	1.694
645.80	1.694
646.49	1.690
647.18	1.694
647.84	1.690
648.48	1.674
649.12	1.682
649.76	1.690
650.38	1.702
650.98	1.706
651.60	1.698
652.22	1.682
652.84	1.670
653.48	1.670
654.12	1.653
654.76	1.666
655.41	1.662
656.05	1.657
656.69	1.670
657.33	1.666
657.97	1.678
658.62	1.670
659.29	1.666
659.97	1.670
660.66	1.670
661.33	1.657
661.99	1.670
662.64	1.666
663.29	1.657
663.93	1.657
664.57	1.670
665.20	1.662
665.83	1.653
666.47	1.653
667.10	1.657
667.72	1.653
668.36	1.657
668.99	1.653
669.63	1.662
670.27	1.645
670.90	1.649
671.54	1.641
672.18	1.641
672.82	1.649
673.45	1.645
674.07	1.645
674.69	1.649
675.32	1.657
675.95	1.649
676.59	1.653
677.23	1.662
677.86	1.649
678.50	1.653
679.14	1.649
679.79	1.645
680.43	1.633
681.10	1.625
681.76	1.629
682.40	1.633
683.03	1.637
683.69	1.645
684.33	1.633
684.95	1.633
685.56	1.637
686.17	1.629
686.78	1.633
687.38	1.653
687.98	1.637
688.59	1.629
689.19	1.621
689.81	1.629
690.42	1.629
691.03	1.637
691.64	1.621
692.31	1.613
692.98	1.597
693.66	1.605
694.36	1.605
695.06	1.613
695.75	1.601
696.41	1.621
697.07	1.625
697.74	1.629
698.41	1.617
699.08	1.617
699.75	1.597
700.45	1.609
701.15	1.625
701.85	1.617
702.54	1.621
703.23	1.617
703.90	1.605
704.59	1.609
705.31	1.633
706.02	1.629
706.72	1.629
707.41	1.641
708.07	1.629
708.71	1.613
709.36	1.601
710.02	1.601
710.70	1.609
711.40	1.613
712.09	1.617
712.77	1.609
713.47	1.609
714.20	1.592
714.92	1.592
715.61	1.609
716.30	1.613
716.99	1.609
717.69	1.613
718.39	1.613
719.08	1.609
719.78	1.605
720.48	1.601
721.16	1.601
721.84	1.601
722.52	1.609
723.20	1.605
723.87	1.617
724.56	1.633
725.23	1.629
725.91	1.617
726.62	1.605
727.32	1.584
728.02	1.605
728.73	1.605
729.41	1.605
730.09	1.609
730.76	1.613
731.45	1.617
732.14	1.617
732.83	1.617
733.52	1.613
734.16	1.609
734.80	1.601
735.46	1.592
736.13	1.605
736.81	1.609
737.48	1.609
738.15	1.617
738.82	1.617
739.50	1.601
740.18	1.597
740.86	1.601
741.54	1.588
742.22	1.584
742.86	1.588
743.49	1.588
744.13	1.597
744.78	1.588
745.46	1.584
746.11	1.576
746.75	1.580
747.41	1.592
748.10	1.584
748.80	1.584
749.44	1.572
750.02	1.568
750.58	1.572
751.13	1.584
751.76	1.584
752.44	1.592
753.15	1.609
753.84	1.601
754.52	1.592
755.16	1.601
755.76	1.597
756.38	1.588
756.98	1.584
757.59	1.588
758.23	1.576
758.89	1.576
759.55	1.580
760.20	1.584
760.86	1.601
761.51	1.605
762.16	1.597
762.81	1.580
763.44	1.613
764.07	1.617
764.71	1.597
765.36	1.605
766.01	1.617
766.66	1.617
767.35	1.613
768.02	1.605
768.68	1.605
769.33	1.613
769.97	1.613
770.61	1.625
771.25	1.641
771.89	1.625
772.54	1.617
773.20	1.625
773.86	1.621
774.51	1.617
775.17	1.609
775.84	1.625
776.51	1.633
777.14	1.625
777.78	1.621
778.43	1.609
779.08	1.617
779.75	1.625
780.43	1.637
781.10	1.633
781.75	1.637
782.39	1.641
783.05	1.657
783.70	1.670
784.36	1.662
785.01	1.657
785.63	1.637
786.27	1.653
786.91	1.653
787.59	1.653
788.24	1.657
788.55	1.662