File: 论文/论文/dsc/10%5mm.txt
Filename:	D:\TGAdata\„∆√ŒœÈ\20150506\10%5mm.pdid

Temperature (°„C)	Heat Flow Endo Up (mW)
10.21	1.2729
10.22	1.2199
10.28	1.1483
10.37	1.1087
10.49	1.0370
10.61	0.9901
10.74	1.0176
10.87	1.1291
11.00	1.3016
11.13	1.5075
11.26	1.7217
11.39	1.9267
11.52	2.1139
11.66	2.2785
11.79	2.4192
11.92	2.5399
12.06	2.6394
12.19	2.7222
12.32	2.7903
12.45	2.8455
12.58	2.8921
12.72	2.9293
12.85	2.9594
12.98	2.9839
13.12	3.0040
13.25	3.0223
13.39	3.0364
13.52	3.0485
13.65	3.0584
13.79	3.0668
13.92	3.0751
14.05	3.0818
14.18	3.0878
14.33	3.0930
14.45	3.0977
14.59	3.1028
14.72	3.1077
14.85	3.1119
14.99	3.1157
15.12	3.1198
15.25	3.1236
15.39	3.1276
15.52	3.1307
15.66	3.1342
15.79	3.1378
15.92	3.1414
16.05	3.1451
16.19	3.1486
16.32	3.1520
16.45	3.1554
16.59	3.1589
16.73	3.1623
16.85	3.1651
16.99	3.1685
17.12	3.1726
17.25	3.1771
17.39	3.1804
17.52	3.1849
17.65	3.1893
17.78	3.1928
17.92	3.1972
18.05	3.2002
18.18	3.2033
18.32	3.2071
18.45	3.2094
18.58	3.2125
18.72	3.2159
18.85	3.2181
18.98	3.2212
19.12	3.2241
19.25	3.2261
19.38	3.2293
19.51	3.2317
19.65	3.2337
19.78	3.2377
19.91	3.2405
20.05	3.2435
20.18	3.2474
20.31	3.2499
20.45	3.2538
20.58	3.2574
20.71	3.2597
20.84	3.2632
20.98	3.2662
21.11	3.2687
21.24	3.2727
21.38	3.2759
21.51	3.2790
21.64	3.2831
21.78	3.2854
21.91	3.2886
22.04	3.2926
22.17	3.2951
22.30	3.2987
22.44	3.3027
22.57	3.3052
22.71	3.3093
22.84	3.3123
22.97	3.3152
23.10	3.3187
23.24	3.3217
23.37	3.3253
23.50	3.3289
23.63	3.3314
23.77	3.3352
23.90	3.3383
24.03	3.3410
24.17	3.3448
24.30	3.3472
24.43	3.3506
24.57	3.3547
24.69	3.3575
24.83	3.3613
24.96	3.3649
25.09	3.3676
25.23	3.3719
25.36	3.3752
25.49	3.3785
25.62	3.3827
25.76	3.3857
25.89	3.3893
26.03	3.3927
26.16	3.3957
26.29	3.3998
26.43	3.4031
26.56	3.4069
26.69	3.4112
26.82	3.4144
26.96	3.4188
27.09	3.4226
27.22	3.4245
27.36	3.4277
27.48	3.4302
27.62	3.4321
27.76	3.4354
27.89	3.4381
28.03	3.4412
28.15	3.4462
28.29	3.4497
28.42	3.4544
28.56	3.4588
28.69	3.4621
28.82	3.4665
28.95	3.4699
29.08	3.4730
29.22	3.4774
29.35	3.4802
29.49	3.4841
29.62	3.4876
29.75	3.4906
29.89	3.4945
30.02	3.4979
30.15	3.5009
30.28	3.5048
30.42	3.5080
30.55	3.5115
30.68	3.5156
30.82	3.5184
30.95	3.5221
31.09	3.5259
31.22	3.5288
31.35	3.5328
31.48	3.5359
31.62	3.5394
31.74	3.5430
31.88	3.5465
32.02	3.5501
32.15	3.5541
32.28	3.5573
32.41	3.5620
32.55	3.5651
32.68	3.5688
32.82	3.5724
32.95	3.5751
33.08	3.5789
33.21	3.5825
33.34	3.5857
33.48	3.5899
33.61	3.5931
33.74	3.5966
33.88	3.6003
34.01	3.6033
34.14	3.6074
34.28	3.6114
34.41	3.6149
34.54	3.6194
34.67	3.6229
34.81	3.6272
34.94	3.6310
35.08	3.6346
35.21	3.6391
35.34	3.6430
35.47	3.6463
35.60	3.6511
35.74	3.6546
35.87	3.6586
36.00	3.6627
36.14	3.6664
36.27	3.6711
36.40	3.6760
36.54	3.6801
36.67	3.6846
36.80	3.6883
36.94	3.6927
37.07	3.6968
37.20	3.7001
37.34	3.7050
37.47	3.7083
37.60	3.7122
37.73	3.7159
37.87	3.7188
38.00	3.7223
38.13	3.7254
38.27	3.7289
38.40	3.7337
38.53	3.7370
38.67	3.7409
38.80	3.7447
38.93	3.7485
39.07	3.7531
39.20	3.7567
39.33	3.7604
39.46	3.7654
39.59	3.7692
39.73	3.7730
39.87	3.7774
40.00	3.7806
40.13	3.7854
40.27	3.7895
40.40	3.7937
40.53	3.7980
40.66	3.8016
40.80	3.8061
40.93	3.8104
41.07	3.8144
41.20	3.8190
41.33	3.8231
41.46	3.8273
41.59	3.8317
41.73	3.8348
41.87	3.8391
41.99	3.8427
42.13	3.8468
42.26	3.8511
42.39	3.8549
42.52	3.8595
42.66	3.8638
42.79	3.8670
42.93	3.8721
43.06	3.8762
43.19	3.8800
43.32	3.8842
43.46	3.8875
43.59	3.8926
43.73	3.8966
43.86	3.9007
43.99	3.9052
44.13	3.9085
44.25	3.9130
44.39	3.9172
44.52	3.9202
44.65	3.9251
44.79	3.9287
44.93	3.9324
45.05	3.9366
45.19	3.9397
45.32	3.9444
45.45	3.9483
45.59	3.9530
45.72	3.9577
45.85	3.9621
45.99	3.9669
46.12	3.9712
46.25	3.9751
46.39	3.9799
46.52	3.9836
46.65	3.9881
46.78	3.9923
46.92	3.9957
47.05	4.0007
47.18	4.0040
47.32	4.0081
47.45	4.0125
47.58	4.0165
47.72	4.0209
47.85	4.0255
47.98	4.0299
48.12	4.0346
48.25	4.0381
48.39	4.0436
48.51	4.0475
48.65	4.0507
48.78	4.0552
48.92	4.0586
49.05	4.0625
49.18	4.0664
49.31	4.0694
49.45	4.0743
49.58	4.0784
49.71	4.0831
49.85	4.0876
49.98	4.0913
50.12	4.0963
50.25	4.1005
50.38	4.1050
50.52	4.1102
50.65	4.1142
50.78	4.1188
50.91	4.1231
51.05	4.1269
51.18	4.1312
51.31	4.1349
51.44	4.1391
51.58	4.1431
51.71	4.1471
51.84	4.1520
51.98	4.1553
52.11	4.1598
52.25	4.1643
52.38	4.1685
52.51	4.1731
52.65	4.1770
52.78	4.1816
52.91	4.1863
53.05	4.1897
53.18	4.1940
53.31	4.1977
53.44	4.2013
53.58	4.2056
53.71	4.2092
53.84	4.2136
53.97	4.2178
54.10	4.2221
54.25	4.2262
54.38	4.2308
54.50	4.2351
54.64	4.2392
54.77	4.2432
54.91	4.2473
55.03	4.2506
55.17	4.2545
55.31	4.2586
55.44	4.2620
55.56	4.2673
55.70	4.2712
55.84	4.2755
55.97	4.2800
56.11	4.2835
56.24	4.2885
56.37	4.2931
56.50	4.2977
56.64	4.3023
56.77	4.3059
56.90	4.3107
57.04	4.3145
57.18	4.3183
57.31	4.3232
57.43	4.3266
57.57	4.3317
57.71	4.3360
57.83	4.3403
57.97	4.3447
58.10	4.3483
58.24	4.3528
58.37	4.3565
58.50	4.3601
58.64	4.3646
58.77	4.3689
58.90	4.3738
59.03	4.3788
59.17	4.3828
59.30	4.3876
59.44	4.3913
59.57	4.3951
59.70	4.3989
59.84	4.4016
59.96	4.4062
60.10	4.4095
60.23	4.4139
60.37	4.4184
60.50	4.4226
60.63	4.4282
60.77	4.4329
60.90	4.4371
61.03	4.4414
61.17	4.4453
61.30	4.4499
61.43	4.4534
61.57	4.4574
61.70	4.4619
61.83	4.4652
61.96	4.4701
62.10	4.4744
62.23	4.4794
62.36	4.4839
62.49	4.4879
62.63	4.4932
62.76	4.4971
62.90	4.5018
63.03	4.5066
63.16	4.5104
63.30	4.5158
63.43	4.5197
63.56	4.5243
63.70	4.5286
63.83	4.5326
63.97	4.5377
64.09	4.5417
64.23	4.5462
64.36	4.5507
64.50	4.5541
64.63	4.5586
64.76	4.5631
64.89	4.5670
65.03	4.5718
65.16	4.5762
65.30	4.5812
65.43	4.5855
65.57	4.5904
65.69	4.5951
65.83	4.5987
65.96	4.6035
66.09	4.6068
66.22	4.6113
66.37	4.6157
66.50	4.6193
66.63	4.6243
66.76	4.6277
66.89	4.6320
67.03	4.6363
67.16	4.6400
67.30	4.6449
67.42	4.6495
67.56	4.6540
67.69	4.6590
67.83	4.6630
67.96	4.6686
68.09	4.6727
68.23	4.6777
68.36	4.6823
68.49	4.6865
68.63	4.6909
68.76	4.6947
68.89	4.6991
69.03	4.7039
69.16	4.7076
69.30	4.7128
69.42	4.7177
69.56	4.7226
69.69	4.7274
69.82	4.7313
69.96	4.7365
70.09	4.7408
70.23	4.7460
70.36	4.7505
70.49	4.7552
70.63	4.7604
70.76	4.7651
70.89	4.7702
71.03	4.7746
71.16	4.7785
71.29	4.7836
71.43	4.7875
71.55	4.7925
71.69	4.7974
71.82	4.8014
71.96	4.8067
72.09	4.8107
72.22	4.8157
72.35	4.8203
72.48	4.8247
72.62	4.8295
72.76	4.8335
72.89	4.8388
73.03	4.8436
73.16	4.8477
73.30	4.8528
73.42	4.8570
73.56	4.8624
73.70	4.8670
73.83	4.8720
73.95	4.8766
74.09	4.8809
74.23	4.8867
74.36	4.8911
74.49	4.8959
74.62	4.9006
74.76	4.9046
74.89	4.9099
75.03	4.9140
75.16	4.9188
75.30	4.9238
75.43	4.9279
75.56	4.9331
75.69	4.9372
75.82	4.9421
75.96	4.9471
76.09	4.9519
76.23	4.9570
76.36	4.9615
76.49	4.9665
76.63	4.9707
76.76	4.9747
76.90	4.9786
77.03	4.9827
77.16	4.9870
77.29	4.9914
77.42	4.9961
77.56	5.0010
77.69	5.0049
77.82	5.0103
77.95	5.0144
78.09	5.0194
78.23	5.0245
78.36	5.0287
78.49	5.0341
78.63	5.0387
78.75	5.0435
78.89	5.0477
79.03	5.0516
79.16	5.0562
79.29	5.0600
79.42	5.0653
79.56	5.0702
79.69	5.0742
79.83	5.0797
79.95	5.0843
80.09	5.0893
80.23	5.0941
80.35	5.0990
80.49	5.1040
80.63	5.1087
80.75	5.1139
80.89	5.1197
81.02	5.1253
81.15	5.1312
81.29	5.1372
81.42	5.1423
81.55	5.1471
81.69	5.1526
81.82	5.1565
81.95	5.1618
82.08	5.1653
82.22	5.1701
82.34	5.1741
82.48	5.1784
82.62	5.1830
82.75	5.1877
82.88	5.1923
83.02	5.1982
83.15	5.2034
83.28	5.2086
83.41	5.2138
83.55	5.2197
83.69	5.2250
83.81	5.2303
83.95	5.2354
84.08	5.2406
84.22	5.2459
84.34	5.2514
84.48	5.2572
84.61	5.2623
84.74	5.2679
84.88	5.2730
85.01	5.2791
85.14	5.2844
85.28	5.2903
85.41	5.2957
85.54	5.3007
85.67	5.3057
85.81	5.3114
85.94	5.3168
86.08	5.3220
86.20	5.3274
86.34	5.3329
86.47	5.3384
86.60	5.3444
86.74	5.3502
86.87	5.3561
87.00	5.3618
87.13	5.3674
87.26	5.3737
87.40	5.3787
87.53	5.3846
87.67	5.3899
87.80	5.3959
87.93	5.4016
88.07	5.4076
88.20	5.4122
88.33	5.4180
88.47	5.4229
88.59	5.4290
88.73	5.4344
88.86	5.4400
89.00	5.4453
89.13	5.4515
89.26	5.4566
89.39	5.4627
89.53	5.4688
89.66	5.4750
89.79	5.4807
89.92	5.4864
90.05	5.4934
90.19	5.4993
90.32	5.5056
90.45	5.5115
90.59	5.5179
90.73	5.5232
90.85	5.5294
90.98	5.5355
91.12	5.5422
91.26	5.5484
91.38	5.5549
91.53	5.5605
91.65	5.5670
91.78	5.5725
91.92	5.5792
92.05	5.5853
92.18	5.5925
92.32	5.5988
92.45	5.6050
92.58	5.6115
92.72	5.6175
92.85	5.6228
92.98	5.6286
93.12	5.6342
93.25	5.6399
93.38	5.6458
93.52	5.6517
93.64	5.6581
93.78	5.6639
93.91	5.6699
94.05	5.6755
94.18	5.6823
94.31	5.6880
94.44	5.6945
94.58	5.7006
94.71	5.7070
94.84	5.7135
94.98	5.7200
95.11	5.7263
95.24	5.7323
95.38	5.7384
95.51	5.7448
95.64	5.7516
95.78	5.7579
95.91	5.7653
96.05	5.7718
96.17	5.7780
96.30	5.7832
96.44	5.7889
96.58	5.7941
96.71	5.8002
96.84	5.8064
96.98	5.8136
97.11	5.8209
97.24	5.8290
97.38	5.8367
97.51	5.8448
97.64	5.8523
97.77	5.8595
97.90	5.8661
98.04	5.8728
98.17	5.8798
98.30	5.8864
98.44	5.8934
98.57	5.8999
98.70	5.9073
98.84	5.9143
98.97	5.9209
99.10	5.9266
99.24	5.9331
99.37	5.9390
99.51	5.9455
99.64	5.9528
99.77	5.9602
99.90	5.9678
100.04	5.9756
100.17	5.9829
100.30	5.9897
100.44	5.9962
100.57	6.0032
100.70	6.0101
100.84	6.0170
100.97	6.0246
101.10	6.0313
101.23	6.0383
101.37	6.0448
101.50	6.0522
101.63	6.0583
101.77	6.0655
101.90	6.0723
102.04	6.0803
102.17	6.0876
102.30	6.0950
102.43	6.1026
102.57	6.1100
102.70	6.1166
102.83	6.1234
102.97	6.1309
103.10	6.1381
103.23	6.1466
103.37	6.1548
103.50	6.1638
103.63	6.1715
103.75	6.1804
103.90	6.1882
104.03	6.1968
104.17	6.2046
104.30	6.2136
104.43	6.2218
104.57	6.2312
104.70	6.2400
104.83	6.2485
104.97	6.2568
105.10	6.2648
105.23	6.2736
105.36	6.2832
105.50	6.2933
105.63	6.3032
105.77	6.3135
105.89	6.3225
106.03	6.3316
106.17	6.3405
106.29	6.3495
106.43	6.3589
106.56	6.3687
106.69	6.3780
106.83	6.3865
106.96	6.3952
107.09	6.4025
107.22	6.4099
107.35	6.4164
107.49	6.4230
107.62	6.4292
107.76	6.4342
107.89	6.4377
108.03	6.4406
108.15	6.4421
108.29	6.4434
108.42	6.4433
108.55	6.4423
108.69	6.4410
108.82	6.4392
108.95	6.4363
109.09	6.4340
109.22	6.4322
109.35	6.4312
109.49	6.4313
109.62	6.4307
109.75	6.4315
109.88	6.4314
110.02	6.4312
110.15	6.4265
110.29	6.4292
110.42	6.4351
110.55	6.4427
110.69	6.4506
110.83	6.4583
110.96	6.4651
111.08	6.4717
111.23	6.4785
111.36	6.4848
111.49	6.4910
111.62	6.4971
111.75	6.5034
111.89	6.5104
112.02	6.5178
112.15	6.5249
112.29	6.5322
112.42	6.5389
112.55	6.5459
112.69	6.5523
112.82	6.5597
112.95	6.5673
113.08	6.5741
113.22	6.5816
113.35	6.5885
113.49	6.5958
113.62	6.6019
113.75	6.6089
113.89	6.6156
114.02	6.6229
114.15	6.6297
114.29	6.6363
114.42	6.6432
114.55	6.6494
114.68	6.6558
114.82	6.6623
114.96	6.6695
115.08	6.6774
115.22	6.6861
115.35	6.6945
115.48	6.7022
115.62	6.7099
115.75	6.7147
115.88	6.7200
116.02	6.7275
116.15	6.7345
116.28	6.7427
116.41	6.7504
116.55	6.7581
116.68	6.7657
116.82	6.7740
116.95	6.7823
117.08	6.7900
117.21	6.7980
117.35	6.8053
117.48	6.8129
117.62	6.8201
117.74	6.8281
117.88	6.8357
118.01	6.8431
118.14	6.8497
118.28	6.8564
118.41	6.8630
118.55	6.8702
118.68	6.8773
118.81	6.8848
118.95	6.8927
119.08	6.9006
119.21	6.9087
119.35	6.9161
119.48	6.9245
119.61	6.9325
119.75	6.9404
119.88	6.9487
120.01	6.9570
120.14	6.9654
120.28	6.9734
120.41	6.9817
120.54	6.9901
120.68	6.9988
120.81	7.0071
120.94	7.0153
121.08	7.0227
121.21	7.0306
121.35	7.0380
121.48	7.0457
121.61	7.0533
121.75	7.0615
121.88	7.0689
122.01	7.0771
122.14	7.0854
122.28	7.0940
122.41	7.1026
122.55	7.1107
122.68	7.1186
122.81	7.1262
122.95	7.1342
123.08	7.1421
123.21	7.1509
123.35	7.1592
123.46	7.1673
123.61	7.1750
123.74	7.1833
123.88	7.1917
124.01	7.1995
124.14	7.2075
124.28	7.2156
124.41	7.2234
124.54	7.2310
124.68	7.2395
124.80	7.2477
124.95	7.2562
125.08	7.2642
125.20	7.2727
125.34	7.2806
125.47	7.2888
125.60	7.2972
125.74	7.3052
125.88	7.3136
126.00	7.3215
126.14	7.3300
126.28	7.3377
126.40	7.3464
126.54	7.3543
126.68	7.3625
126.80	7.3696
126.94	7.3778
127.07	7.3856
127.20	7.3935
127.34	7.4017
127.47	7.4101
127.61	7.4188
127.74	7.4269
127.87	7.4354
128.00	7.4439
128.14	7.4524
128.27	7.4609
128.40	7.4695
128.54	7.4769
128.67	7.4848
128.80	7.4926
128.93	7.5002
129.07	7.5075
129.20	7.5149
129.34	7.5226
129.47	7.5298
129.60	7.5383
129.74	7.5469
129.87	7.5556
130.00	7.5649
130.13	7.5741
130.27	7.5830
130.40	7.5918
130.54	7.6011
130.67	7.6097
130.81	7.6191
130.94	7.6280
131.07	7.6374
131.20	7.6459
131.34	7.6550
131.47	7.6631
131.60	7.6715
131.74	7.6800
131.87	7.6887
132.00	7.6965
132.13	7.7043
132.28	7.7139
132.40	7.7236
132.54	7.7332
132.67	7.7425
132.80	7.7524
132.93	7.7606
133.07	7.7700
133.20	7.7788
133.34	7.7874
133.47	7.7965
133.60	7.8052
133.74	7.8144
133.87	7.8231
134.00	7.8326
134.13	7.8414
134.27	7.8511
134.40	7.8608
134.54	7.8709
134.67	7.8806
134.80	7.8904
134.94	7.9001
135.07	7.9093
135.20	7.9191
135.33	7.9280
135.47	7.9366
135.60	7.9449
135.73	7.9532
135.87	7.9608
136.00	7.9699
136.13	7.9792
136.27	7.9892
136.40	7.9992
136.53	8.0087
136.67	8.0182
136.80	8.0268
136.93	8.0366
137.07	8.0455
137.20	8.0557
137.33	8.0655
137.46	8.0753
137.60	8.0849
137.73	8.0950
137.87	8.1054
138.00	8.1157
138.13	8.1261
138.27	8.1344
138.40	8.1439
138.54	8.1537
138.66	8.1648
138.80	8.1753
138.93	8.1856
139.06	8.1963
139.20	8.2068
139.33	8.2176
139.47	8.2280
139.60	8.2389
139.73	8.2500
139.87	8.2611
140.00	8.2715
140.14	8.2819
140.27	8.2924
140.40	8.3032
140.53	8.3139
140.67	8.3248
140.80	8.3365
140.94	8.3479
141.07	8.3597
141.20	8.3709
141.34	8.3823
141.47	8.3929
141.60	8.4049
141.74	8.4164
141.87	8.4286
142.00	8.4402
142.14	8.4507
142.27	8.4610
142.40	8.4711
142.54	8.4817
142.67	8.4926
142.80	8.5040
142.93	8.5154
143.07	8.5274
143.20	8.5391
143.34	8.5510
143.47	8.5627
143.60	8.5743
143.74	8.5862
143.87	8.5973
144.00	8.6089
144.14	8.6203
144.27	8.6318
144.40	8.6438
144.54	8.6556
144.67	8.6670
144.80	8.6785
144.93	8.6904
145.07	8.7014
145.20	8.7132
145.33	8.7247
145.47	8.7366
145.60	8.7486
145.73	8.7600
145.86	8.7714
146.00	8.7827
146.13	8.7935
146.26	8.8047
146.40	8.8158
146.53	8.8270
146.66	8.8391
146.79	8.8512
146.93	8.8628
147.06	8.8746
147.19	8.8865
147.33	8.8982
147.46	8.9101
147.59	8.9223
147.72	8.9343
147.86	8.9461
147.99	8.9572
148.13	8.9681
148.26	8.9799
148.40	8.9917
148.53	9.0033
148.66	9.0152
148.79	9.0267
148.93	9.0376
149.05	9.0491
149.19	9.0603
149.32	9.0723
149.45	9.0841
149.59	9.0970
149.72	9.1101
149.85	9.1236
149.99	9.1377
150.12	9.1514
150.25	9.1659
150.39	9.1801
150.52	9.1955
150.65	9.2108
150.79	9.2260
150.92	9.2420
151.05	9.2575
151.18	9.2732
151.32	9.2893
151.44	9.3048
151.58	9.3202
151.72	9.3357
151.85	9.3516
151.98	9.3671
152.11	9.3833
152.25	9.4006
152.38	9.4177
152.51	9.4360
152.65	9.4536
152.78	9.4709
152.91	9.4888
153.04	9.5069
153.18	9.5253
153.31	9.5441
153.44	9.5606
153.57	9.5761
153.71	9.5938
153.84	9.6130
153.97	9.6323
154.10	9.6521
154.24	9.6717
154.37	9.6911
154.50	9.7108
154.64	9.7307
154.77	9.7507
154.90	9.7711
155.03	9.7911
155.17	9.8114
155.30	9.8321
155.43	9.8534
155.57	9.8744
155.70	9.8953
155.83	9.9174
155.97	9.9406
156.10	9.9649
156.23	9.9894
156.37	10.0140
156.50	10.0389
156.63	10.0638
156.77	10.0887
156.90	10.1142
157.03	10.1394
157.17	10.1659
157.30	10.1925
157.43	10.2192
157.56	10.2466
157.69	10.2751
157.83	10.3033
157.96	10.3313
158.10	10.3610
158.23	10.3924
158.36	10.4255
158.50	10.4593
158.63	10.4935
158.76	10.5287
158.90	10.5645
159.03	10.6006
159.16	10.6377
159.29	10.6758
159.43	10.7136
159.56	10.7529
159.69	10.7929
159.83	10.8342
159.95	10.8754
160.09	10.9088
160.22	10.9477
160.36	10.9915
160.49	11.0354
160.63	11.0815
160.76	11.1297
160.89	11.1780
161.02	11.2270
161.16	11.2763
161.29	11.3246
161.42	11.3723
161.55	11.4191
161.69	11.4657
161.82	11.5133
161.96	11.5617
162.09	11.6096
162.22	11.6572
162.35	11.7047
162.49	11.7507
162.61	11.7961
162.75	11.8415
162.89	11.8877
163.02	11.9353
163.15	11.9836
163.28	12.0312
163.41	12.0779
163.55	12.1229
163.68	12.1654
163.81	12.2053
163.94	12.2433
164.08	12.2786
164.21	12.3118
164.35	12.3429
164.48	12.3716
164.61	12.3975
164.75	12.4212
164.88	12.4421
165.01	12.4609
165.15	12.4777
165.28	12.4926
165.41	12.5060
165.54	12.5181
165.68	12.5276
165.81	12.5360
165.94	12.5433
166.08	12.5477
166.21	12.5486
166.34	12.5407
166.47	12.5323
166.61	12.5234
166.74	12.5104
166.88	12.4929
167.01	12.4707
167.14	12.4463
167.27	12.4180
167.41	12.3863
167.54	12.3500
167.68	12.3091
167.81	12.2627
167.94	12.2105
168.08	12.1523
168.20	12.0877
168.34	12.0173
168.47	11.9412
168.61	11.8594
168.75	11.7722
168.88	11.6802
169.00	11.5824
169.14	11.4799
169.28	11.3738
169.41	11.2662
169.55	11.1575
169.68	11.0485
169.81	10.9404
169.94	10.8346
170.08	10.7325
170.21	10.6371
170.34	10.5481
170.47	10.4663
170.60	10.3934
170.74	10.3289
170.88	10.2730
171.00	10.2258
171.14	10.1872
171.28	10.1555
171.40	10.1307
171.54	10.1116
171.68	10.0966
171.81	10.0850
171.94	10.0770
172.08	10.0710
172.20	10.0686
172.34	10.0680
172.47	10.0694
172.60	10.0727
172.74	10.0775
172.87	10.0841
173.00	10.0920
173.14	10.1010
173.27	10.1098
173.40	10.1185
173.54	10.1271
173.67	10.1354
173.80	10.1449
173.94	10.1542
174.07	10.1640
174.20	10.1736
174.33	10.1833
174.47	10.1927
174.60	10.2034
174.73	10.2142
174.87	10.2256
175.00	10.2365
175.14	10.2468
175.27	10.2564
175.40	10.2670
175.53	10.2777
175.67	10.2890
175.80	10.2996
175.93	10.3098
176.07	10.3201
176.20	10.3304
176.33	10.3408
176.47	10.3508
176.60	10.3602
176.73	10.3698
176.86	10.3793
177.00	10.3894
177.13	10.4003
177.26	10.4118
177.40	10.4225
177.53	10.4337
177.66	10.4441
177.80	10.4540
177.93	10.4646
178.06	10.4751
178.19	10.4854
178.33	10.4955
178.46	10.5054
178.60	10.5147
178.73	10.5242
178.86	10.5336
178.99	10.5441
179.13	10.5550
179.26	10.5658
179.40	10.5761
179.53	10.5851
179.66	10.5933
179.80	10.6022
179.93	10.6119
180.06	10.6212
180.19	10.6304
180.33	10.6400
180.46	10.6506
180.59	10.6606
180.73	10.6711
180.86	10.6794
180.99	10.6837
181.13	10.6912
181.26	10.7025
181.39	10.7145
181.53	10.7272
181.65	10.7386
181.79	10.7490
181.93	10.7591
182.06	10.7695
182.19	10.7795
182.32	10.7903
182.46	10.8009
182.59	10.8118
182.72	10.8215
182.85	10.8316
182.99	10.8417
183.12	10.8518
183.25	10.8612
183.38	10.8708
183.52	10.8804
183.65	10.8908
183.78	10.9011
183.92	10.9120
184.06	10.9229
184.18	10.9333
184.32	10.9434
184.45	10.9545
184.58	10.9652
184.72	10.9762
184.85	10.9864
184.98	10.9964
185.12	11.0069
185.25	11.0165
185.39	11.0261
185.52	11.0357
185.65	11.0454
185.78	11.0559
185.92	11.0666
186.05	11.0773
186.18	11.0877
186.32	11.0976
186.45	11.1080
186.59	11.1185
186.72	11.1291
186.85	11.1402
186.98	11.1508
187.12	11.1611
187.25	11.1715
187.38	11.1818
187.52	11.1920
187.65	11.2025
187.78	11.2125
187.92	11.2222
188.05	11.2325
188.18	11.2438
188.32	11.2547
188.44	11.2656
188.58	11.2762
188.72	11.2860
188.85	11.2957
188.98	11.3059
189.13	11.3161
189.25	11.3267
189.38	11.3376
189.52	11.3484
189.65	11.3596
189.79	11.3712
189.91	11.3827
190.05	11.3939
190.18	11.4042
190.32	11.4142
190.45	11.4244
190.58	11.4341
190.72	11.4437
190.85	11.4538
190.98	11.4649
191.12	11.4763
191.25	11.4870
191.39	11.4981
191.51	11.5088
191.65	11.5199
191.78	11.5305
191.91	11.5410
192.05	11.5507
192.18	11.5609
192.31	11.5708
192.45	11.5819
192.58	11.5925
192.71	11.6030
192.85	11.6136
192.98	11.6243
193.11	11.6355
193.25	11.6463
193.38	11.6572
193.51	11.6684
193.65	11.6787
193.78	11.6894
193.92	11.6997
194.05	11.7102
194.18	11.7211
194.31	11.7317
194.44	11.7423
194.58	11.7526
194.71	11.7633
194.85	11.7734
194.98	11.7840
195.11	11.7948
195.25	11.8059
195.38	11.8173
195.51	11.8290
195.65	11.8402
195.78	11.8513
195.92	11.8624
196.05	11.8738
196.18	11.8852
196.31	11.8964
196.44	11.9076
196.58	11.9182
196.72	11.9282
196.85	11.9381
196.98	11.9478
197.12	11.9581
197.25	11.9690
197.38	11.9798
197.51	11.9912
197.65	12.0026
197.78	12.0138
197.92	12.0250
198.05	12.0363
198.18	12.0474
198.31	12.0583
198.44	12.0686
198.58	12.0794
198.71	12.0897
198.85	12.1010
198.98	12.1118
199.11	12.1224
199.25	12.1335
199.38	12.1441
199.51	12.1547
199.65	12.1657
199.78	12.1760
199.91	12.1866