File: 论文/论文/dsc/30%10mm.txt
Filename:	D:\TGAdata\„∆√ŒœÈ\20150506\30%10mm.pdid

Temperature (°„C)	Heat Flow Endo Up (mW)
10.12	0.3039
10.13	0.4429
10.19	0.5488
10.29	0.6796
10.40	0.7643
10.53	0.8521
10.65	0.9886
10.78	1.1819
10.91	1.4130
11.05	1.6597
11.18	1.9011
11.30	2.1229
11.44	2.3202
11.58	2.4896
11.70	2.6340
11.84	2.7561
11.97	2.8547
12.10	2.9366
12.24	3.0034
12.37	3.0576
12.50	3.1027
12.64	3.1385
12.77	3.1677
12.90	3.1915
13.04	3.2107
13.17	3.2274
13.30	3.2411
13.43	3.2523
13.57	3.2621
13.70	3.2704
13.84	3.2795
13.98	3.2864
14.10	3.2923
14.24	3.2977
14.37	3.3032
14.50	3.3088
14.64	3.3144
14.78	3.3191
14.90	3.3231
15.04	3.3272
15.17	3.3317
15.31	3.3361
15.44	3.3397
15.58	3.3436
15.70	3.3474
15.84	3.3519
15.98	3.3562
16.10	3.3596
16.25	3.3638
16.38	3.3683
16.51	3.3727
16.64	3.3775
16.77	3.3809
16.90	3.3846
17.05	3.3887
17.17	3.3932
17.30	3.3973
17.44	3.4024
17.57	3.4072
17.70	3.4109
17.84	3.4159
17.97	3.4196
18.11	3.4225
18.24	3.4272
18.37	3.4306
18.50	3.4339
18.64	3.4375
18.77	3.4405
18.90	3.4443
19.03	3.4478
19.17	3.4507
19.31	3.4548
19.44	3.4583
19.57	3.4614
19.71	3.4660
19.84	3.4692
19.97	3.4722
20.10	3.4762
20.23	3.4791
20.37	3.4831
20.50	3.4876
20.63	3.4908
20.77	3.4951
20.90	3.4990
21.03	3.5025
21.17	3.5076
21.30	3.5111
21.43	3.5146
21.56	3.5195
21.70	3.5225
21.83	3.5268
21.97	3.5310
22.09	3.5345
22.23	3.5389
22.36	3.5425
22.50	3.5462
22.63	3.5506
22.76	3.5541
22.90	3.5584
23.03	3.5632
23.16	3.5666
23.30	3.5708
23.43	3.5750
23.56	3.5784
23.69	3.5827
23.82	3.5866
23.95	3.5900
24.09	3.5944
24.23	3.5978
24.36	3.6021
24.49	3.6064
24.63	3.6098
24.75	3.6147
24.89	3.6182
25.02	3.6217
25.15	3.6259
25.28	3.6295
25.42	3.6332
25.55	3.6383
25.68	3.6417
25.82	3.6465
25.95	3.6505
26.08	3.6544
26.22	3.6590
26.34	3.6627
26.48	3.6666
26.61	3.6714
26.75	3.6757
26.88	3.6797
27.01	3.6840
27.15	3.6872
27.28	3.6917
27.42	3.6949
27.55	3.6984
27.68	3.7034
27.82	3.7077
27.95	3.7121
28.08	3.7182
28.22	3.7222
28.35	3.7273
28.48	3.7320
28.61	3.7362
28.75	3.7412
28.88	3.7450
29.02	3.7488
29.15	3.7531
29.29	3.7567
29.42	3.7611
29.55	3.7653
29.68	3.7689
29.81	3.7737
29.95	3.7777
30.08	3.7815
30.21	3.7867
30.34	3.7905
30.48	3.7949
30.61	3.7995
30.75	3.8034
30.88	3.8082
31.01	3.8124
31.15	3.8164
31.28	3.8212
31.41	3.8250
31.54	3.8295
31.68	3.8337
31.81	3.8368
31.95	3.8417
32.08	3.8453
32.21	3.8492
32.34	3.8544
32.48	3.8583
32.60	3.8618
32.74	3.8665
32.87	3.8705
33.01	3.8755
33.14	3.8798
33.27	3.8838
33.40	3.8888
33.55	3.8931
33.67	3.8977
33.80	3.9023
33.94	3.9059
34.07	3.9104
34.21	3.9148
34.34	3.9184
34.47	3.9236
34.61	3.9274
34.74	3.9321
34.87	3.9368
35.00	3.9407
35.14	3.9455
35.27	3.9494
35.40	3.9537
35.53	3.9591
35.67	3.9633
35.80	3.9680
35.94	3.9727
36.07	3.9763
36.20	3.9815
36.33	3.9854
36.47	3.9895
36.59	3.9942
36.73	3.9979
36.87	4.0029
37.00	4.0080
37.13	4.0119
37.27	4.0175
37.40	4.0217
37.53	4.0263
37.67	4.0312
37.80	4.0345
37.93	4.0395
38.07	4.0437
38.20	4.0470
38.33	4.0521
38.46	4.0557
38.59	4.0604
38.73	4.0657
38.87	4.0699
39.00	4.0753
39.13	4.0802
39.26	4.0850
39.40	4.0903
39.53	4.0944
39.67	4.0991
39.80	4.1038
39.93	4.1077
40.06	4.1130
40.20	4.1168
40.33	4.1214
40.46	4.1269
40.59	4.1314
40.73	4.1365
40.86	4.1411
40.99	4.1457
41.13	4.1509
41.26	4.1557
41.39	4.1598
41.52	4.1647
41.67	4.1689
41.80	4.1742
41.93	4.1786
42.06	4.1837
42.20	4.1889
42.32	4.1933
42.46	4.1982
42.59	4.2032
42.73	4.2073
42.86	4.2127
42.99	4.2171
43.13	4.2218
43.25	4.2268
43.40	4.2314
43.52	4.2368
43.65	4.2421
43.79	4.2464
43.93	4.2515
44.05	4.2557
44.19	4.2613
44.32	4.2658
44.46	4.2702
44.58	4.2754
44.73	4.2799
44.85	4.2847
44.99	4.2902
45.13	4.2940
45.25	4.2999
45.39	4.3045
45.52	4.3093
45.65	4.3151
45.78	4.3196
45.92	4.3253
46.05	4.3302
46.19	4.3347
46.32	4.3400
46.45	4.3442
46.59	4.3493
46.73	4.3542
46.87	4.3589
46.98	4.3645
47.12	4.3687
47.25	4.3736
47.38	4.3788
47.52	4.3834
47.65	4.3891
47.79	4.3942
47.92	4.3989
48.05	4.4045
48.19	4.4091
48.32	4.4148
48.45	4.4193
48.59	4.4235
48.71	4.4289
48.85	4.4329
48.98	4.4377
49.12	4.4426
49.25	4.4464
49.38	4.4519
49.52	4.4561
49.65	4.4613
49.78	4.4666
49.92	4.4709
50.05	4.4768
50.19	4.4816
50.32	4.4860
50.45	4.4909
50.59	4.4952
50.72	4.5004
50.85	4.5055
50.98	4.5102
51.12	4.5157
51.25	4.5206
51.38	4.5257
51.52	4.5304
51.65	4.5347
51.78	4.5398
51.92	4.5439
52.05	4.5483
52.18	4.5528
52.32	4.5574
52.45	4.5625
52.58	4.5669
52.71	4.5718
52.85	4.5769
52.98	4.5807
53.11	4.5859
53.25	4.5903
53.38	4.5946
53.51	4.5996
53.65	4.6039
53.78	4.6092
53.91	4.6135
54.04	4.6178
54.18	4.6227
54.31	4.6264
54.45	4.6314
54.58	4.6359
54.71	4.6394
54.84	4.6448
54.98	4.6491
55.12	4.6542
55.25	4.6588
55.38	4.6630
55.52	4.6683
55.64	4.6727
55.78	4.6774
55.91	4.6827
56.05	4.6876
56.18	4.6939
56.31	4.6993
56.45	4.7058
56.58	4.7128
56.71	4.7176
56.84	4.7220
56.98	4.7255
57.11	4.7286
57.25	4.7325
57.38	4.7359
57.51	4.7404
57.64	4.7444
57.77	4.7484
57.91	4.7528
58.05	4.7566
58.18	4.7612
58.30	4.7658
58.45	4.7694
58.58	4.7743
58.71	4.7784
58.84	4.7830
58.97	4.7884
59.10	4.7924
59.24	4.7974
59.38	4.8022
59.51	4.8066
59.64	4.8106
59.78	4.8139
59.91	4.8186
60.04	4.8229
60.17	4.8274
60.31	4.8316
60.44	4.8356
60.57	4.8404
60.71	4.8450
60.84	4.8504
60.97	4.8552
61.10	4.8597
61.23	4.8648
61.37	4.8693
61.50	4.8744
61.63	4.8803
61.77	4.8848
61.90	4.8904
62.04	4.8948
62.17	4.8997
62.30	4.9045
62.44	4.9087
62.57	4.9139
62.70	4.9182
62.83	4.9229
62.97	4.9291
63.10	4.9352
63.24	4.9427
63.37	4.9496
63.50	4.9563
63.64	4.9636
63.77	4.9690
63.90	4.9749
64.04	4.9793
64.17	4.9841
64.30	4.9887
64.44	4.9922
64.57	4.9970
64.70	5.0011
64.84	5.0057
64.97	5.0099
65.10	5.0140
65.24	5.0191
65.37	5.0226
65.50	5.0266
65.64	5.0304
65.77	5.0333
65.91	5.0378
66.04	5.0419
66.17	5.0462
66.30	5.0512
66.43	5.0555
66.57	5.0605
66.70	5.0649
66.84	5.0705
66.97	5.0753
67.10	5.0799
67.23	5.0856
67.37	5.0902
67.50	5.0957
67.64	5.1010
67.77	5.1061
67.90	5.1119
68.04	5.1168
68.17	5.1220
68.30	5.1271
68.44	5.1311
68.57	5.1364
68.70	5.1414
68.84	5.1462
68.97	5.1515
69.10	5.1558
69.24	5.1609
69.37	5.1656
69.50	5.1712
69.64	5.1764
69.77	5.1820
69.90	5.1896
70.03	5.2117
70.17	5.3539
70.30	5.4444
70.43	5.4536
70.57	5.4267
70.70	5.3906
70.83	5.3588
70.97	5.3334
71.10	5.3148
71.24	5.3027
71.37	5.2937
71.50	5.2891
71.63	5.2864
71.76	5.2846
71.90	5.2846
72.04	5.2855
72.16	5.2881
72.30	5.2912
72.43	5.2941
72.56	5.2984
72.70	5.3018
72.83	5.3066
72.97	5.3112
73.10	5.3153
73.23	5.3202
73.37	5.3248
73.50	5.3298
73.63	5.3349
73.77	5.3401
73.90	5.3455
74.03	5.3503
74.17	5.3564
74.30	5.3610
74.44	5.3660
74.57	5.3713
74.70	5.3758
74.84	5.3811
74.97	5.3864
75.10	5.3918
75.24	5.3967
75.37	5.4010
75.50	5.4067
75.64	5.4117
75.77	5.4172
75.90	5.4224
76.03	5.4279
76.17	5.4342
76.31	5.4396
76.43	5.4451
76.57	5.4500
76.70	5.4547
76.84	5.4605
76.98	5.4660
77.10	5.4709
77.24	5.4760
77.37	5.4818
77.50	5.4876
77.64	5.4930
77.77	5.4992
77.90	5.5049
78.04	5.5107
78.17	5.5161
78.30	5.5207
78.44	5.5258
78.57	5.5301
78.70	5.5351
78.84	5.5402
78.97	5.5452
79.11	5.5507
79.24	5.5556
79.38	5.5611
79.50	5.5664
79.63	5.5714
79.77	5.5765
79.90	5.5813
80.03	5.5870
80.17	5.5924
80.30	5.5984
80.44	5.6040
80.57	5.6096
80.70	5.6155
80.84	5.6214
80.97	5.6268
81.10	5.6325
81.23	5.6375
81.36	5.6434
81.50	5.6486
81.63	5.6546
81.77	5.6594
81.90	5.6648
82.03	5.6687
82.17	5.6737
82.30	5.6776
82.43	5.6830
82.57	5.6870
82.70	5.6921
82.83	5.6972
82.96	5.7031
83.09	5.7086
83.23	5.7141
83.36	5.7199
83.49	5.7258
83.63	5.7314
83.76	5.7368
83.89	5.7425
84.03	5.7475
84.16	5.7535
84.30	5.7585
84.43	5.7640
84.56	5.7697
84.70	5.7751
84.83	5.7808
84.96	5.7875
85.09	5.7930
85.23	5.8001
85.36	5.8053
85.49	5.8117
85.63	5.8176
85.75	5.8235
85.88	5.8296
86.03	5.8348
86.15	5.8406
86.28	5.8461
86.42	5.8515
86.55	5.8571
86.69	5.8627
86.82	5.8686
86.95	5.8748
87.08	5.8809
87.22	5.8870
87.35	5.8924
87.49	5.8984
87.61	5.9041
87.75	5.9105
87.88	5.9163
88.01	5.9226
88.15	5.9277
88.28	5.9340
88.41	5.9393
88.54	5.9458
88.68	5.9513
88.81	5.9569
88.94	5.9624
89.08	5.9684
89.20	5.9741
89.34	5.9797
89.48	5.9858
89.61	5.9915
89.74	5.9971
89.87	6.0030
90.00	6.0092
90.14	6.0151
90.28	6.0217
90.40	6.0274
90.53	6.0336
90.67	6.0398
90.80	6.0466
90.93	6.0528
91.07	6.0590
91.20	6.0647
91.34	6.0709
91.47	6.0762
91.60	6.0827
91.73	6.0886
91.87	6.0944
92.00	6.1005
92.13	6.1075
92.26	6.1136
92.40	6.1193
92.53	6.1252
92.66	6.1308
92.80	6.1364
92.93	6.1421
93.06	6.1484
93.20	6.1536
93.33	6.1601
93.47	6.1661
93.59	6.1722
93.73	6.1779
93.86	6.1846
94.00	6.1900
94.14	6.1969
94.26	6.2031
94.39	6.2096
94.53	6.2158
94.66	6.2222
94.80	6.2288
94.93	6.2355
95.06	6.2418
95.20	6.2477
95.33	6.2545
95.46	6.2607
95.59	6.2673
95.73	6.2735
95.86	6.2799
95.99	6.2860
96.13	6.2922
96.26	6.2979
96.39	6.3036
96.53	6.3085
96.66	6.3151
96.80	6.3214
96.92	6.3284
97.06	6.3358
97.19	6.3430
97.33	6.3498
97.46	6.3567
97.59	6.3633
97.72	6.3707
97.86	6.3780
97.99	6.3849
98.12	6.3921
98.25	6.3979
98.39	6.4045
98.53	6.4103
98.66	6.4164
98.79	6.4222
98.92	6.4291
99.05	6.4353
99.19	6.4424
99.32	6.4482
99.45	6.4550
99.59	6.4608
99.71	6.4672
99.85	6.4734
99.99	6.4803
100.12	6.4878
100.25	6.4948
100.39	6.5026
100.52	6.5096
100.65	6.5168
100.79	6.5235
100.92	6.5306
101.05	6.5374
101.19	6.5444
101.32	6.5513
101.45	6.5583
101.59	6.5647
101.72	6.5715
101.85	6.5784
101.99	6.5857
102.12	6.5925
102.25	6.5996
102.38	6.6061
102.52	6.6123
102.65	6.6185
102.78	6.6247
102.92	6.6318
103.05	6.6382
103.18	6.6457
103.31	6.6524
103.45	6.6594
103.58	6.6659
103.71	6.6724
103.85	6.6780
103.99	6.6851
104.12	6.6919
104.25	6.6996
104.39	6.7069
104.52	6.7142
104.65	6.7207
104.78	6.7272
104.92	6.7345
105.05	6.7410
105.18	6.7480
105.31	6.7552
105.45	6.7625
105.58	6.7699
105.71	6.7773
105.85	6.7843
105.98	6.7912
106.11	6.7981
106.25	6.8052
106.38	6.8116
106.51	6.8186
106.65	6.8256
106.78	6.8328
106.91	6.8401
107.05	6.8470
107.18	6.8538
107.31	6.8604
107.44	6.8674
107.58	6.8745
107.70	6.8825
107.84	6.8895
107.98	6.8978
108.11	6.9052
108.25	6.9134
108.38	6.9213
108.51	6.9291
108.64	6.9366
108.78	6.9440
108.91	6.9514
109.04	6.9583
109.18	6.9653
109.31	6.9721
109.44	6.9791
109.58	6.9866
109.71	6.9938
109.84	7.0012
109.97	7.0094
110.10	7.0163
110.24	7.0241
110.38	7.0310
110.51	7.0385
110.64	7.0460
110.78	7.0536
110.91	7.0610
111.04	7.0687
111.17	7.0762
111.30	7.0835
111.44	7.0914
111.58	7.0980
111.70	7.1050
111.84	7.1123
111.97	7.1197
112.11	7.1271
112.24	7.1351
112.38	7.1426
112.51	7.1509
112.64	7.1583
112.78	7.1666
112.91	7.1745
113.04	7.1819
113.18	7.1896
113.30	7.1975
113.44	7.2058
113.57	7.2133
113.71	7.2213
113.84	7.2279
113.98	7.2355
114.11	7.2428
114.24	7.2509
114.37	7.2581
114.50	7.2654
114.64	7.2729
114.77	7.2802
114.90	7.2881
115.04	7.2957
115.18	7.3041
115.31	7.3119
115.44	7.3205
115.57	7.3280
115.71	7.3359
115.84	7.3427
115.98	7.3506
116.10	7.3573
116.23	7.3656
116.37	7.3732
116.50	7.3816
116.63	7.3895
116.77	7.3977
116.90	7.4061
117.03	7.4145
117.17	7.4229
117.30	7.4307
117.43	7.4389
117.56	7.4468
117.70	7.4546
117.83	7.4625
117.97	7.4702
118.10	7.4775
118.23	7.4855
118.37	7.4930
118.50	7.5008
118.63	7.5083
118.77	7.5163
118.90	7.5242
119.03	7.5316
119.17	7.5401
119.30	7.5474
119.43	7.5562
119.57	7.5642
119.70	7.5722
119.83	7.5801
119.97	7.5886
120.10	7.5969
120.23	7.6050
120.36	7.6136
120.50	7.6217
120.63	7.6303
120.77	7.6381
120.90	7.6468
121.03	7.6547
121.17	7.6635
121.30	7.6707
121.43	7.6789
121.57	7.6866
121.70	7.6947
121.83	7.7038
121.97	7.7121
122.10	7.7206
122.24	7.7288
122.36	7.7373
122.50	7.7455
122.63	7.7537
122.76	7.7615
122.90	7.7699
123.03	7.7783
123.17	7.7866
123.30	7.7955
123.43	7.8046
123.57	7.8142
123.70	7.8223
123.83	7.8311
123.97	7.8393
124.10	7.8477
124.23	7.8559
124.36	7.8647
124.50	7.8731
124.63	7.8821
124.76	7.8907
124.90	7.8994
125.03	7.9076
125.16	7.9165
125.30	7.9254
125.43	7.9343
125.56	7.9429
125.70	7.9506
125.83	7.9593
125.96	7.9675
126.09	7.9765
126.23	7.9853
126.36	7.9948
126.50	8.0030
126.63	8.0110
126.76	8.0195
126.89	8.0277
127.02	8.0368
127.15	8.0452
127.29	8.0544
127.43	8.0639
127.56	8.0729
127.69	8.0817
127.83	8.0910
127.95	8.1001
128.09	8.1097
128.22	8.1189
128.36	8.1283
128.49	8.1376
128.63	8.1471
128.76	8.1566
128.89	8.1651
129.03	8.1738
129.16	8.1824
129.29	8.1913
129.43	8.2002
129.56	8.2095
129.69	8.2184
129.82	8.2281
129.96	8.2372
130.09	8.2470
130.23	8.2560
130.36	8.2651
130.49	8.2741
130.63	8.2825
130.76	8.2919
130.89	8.3010
131.03	8.3111
131.16	8.3206
131.29	8.3307
131.43	8.3405
131.56	8.3498
131.69	8.3585
131.82	8.3673
131.96	8.3768
132.10	8.3858
132.22	8.3958
132.36	8.4055
132.50	8.4157
132.63	8.4257
132.76	8.4359
132.90	8.4458
133.03	8.4556
133.15	8.4653
133.29	8.4749
133.43	8.4846
133.56	8.4947
133.69	8.5048
133.82	8.5143
133.96	8.5244
134.09	8.5341
134.22	8.5442
134.36	8.5539
134.49	8.5640
134.63	8.5731
134.76	8.5831
134.89	8.5928
135.03	8.6024
135.16	8.6117
135.30	8.6214
135.43	8.6310
135.55	8.6404
135.69	8.6502
135.82	8.6597
135.96	8.6700
136.09	8.6804
136.22	8.6915
136.35	8.7023
136.49	8.7130
136.62	8.7230
136.75	8.7326
136.89	8.7430
137.02	8.7528
137.16	8.7631
137.29	8.7731
137.42	8.7831
137.56	8.7929
137.69	8.8031
137.83	8.8133
137.95	8.8231
138.09	8.8332
138.22	8.8433
138.36	8.8540
138.49	8.8644
138.63	8.8749
138.76	8.8854
138.89	8.8953
139.03	8.9059
139.16	8.9163
139.29	8.9266
139.43	8.9373
139.56	8.9481
139.69	8.9585
139.83	8.9698
139.96	8.9807
140.09	8.9917
140.23	9.0021
140.36	9.0123
140.50	9.0223
140.63	9.0333
140.76	9.0444
140.90	9.0553
141.03	9.0668
141.16	9.0778
141.30	9.0893
141.43	9.1013
141.56	9.1136
141.70	9.1258
141.83	9.1378
141.96	9.1496
142.10	9.1622
142.23	9.1749
142.36	9.1867
142.50	9.1992
142.63	9.2108
142.76	9.2232
142.90	9.2359
143.03	9.2488
143.16	9.2619
143.30	9.2752
143.43	9.2885
143.56	9.3015
143.69	9.3149
143.83	9.3284
143.97	9.3417
144.10	9.3553
144.22	9.3695
144.36	9.3835
144.50	9.3980
144.63	9.4125
144.76	9.4270
144.90	9.4413
145.03	9.4554
145.16	9.4696
145.29	9.4839
145.42	9.4978
145.55	9.5120
145.69	9.5257
145.83	9.5393
145.96	9.5532
146.09	9.5667
146.22	9.5792
146.36	9.5912
146.48	9.6026
146.62	9.6131
146.75	9.6239
146.89	9.6330
147.02	9.6419
147.15	9.6510
147.29	9.6585
147.42	9.6653
147.55	9.6716
147.69	9.6776
147.82	9.6848
147.95	9.6929
148.08	9.7001
148.22	9.7077
148.35	9.7155
148.48	9.7227
148.62	9.7310
148.75	9.7401
148.88	9.7495
149.00	9.7608
149.15	9.7726
149.28	9.7850
149.42	9.7978
149.55	9.8115
149.68	9.8265
149.81	9.8418
149.94	9.8579
150.08	9.8750
150.21	9.8935
150.35	9.9114
150.48	9.9298
150.61	9.9488
150.75	9.9679
150.88	9.9880
151.01	10.0080
151.14	10.0274
151.28	10.0473
151.41	10.0670
151.54	10.0863
151.67	10.1059
151.80	10.1255
151.94	10.1451
152.07	10.1656
152.20	10.1858
152.34	10.2060
152.47	10.2264
152.60	10.2464
152.74	10.2660
152.87	10.2853
153.00	10.3045
153.14	10.3234
153.27	10.3426
153.40	10.3612
153.53	10.3802
153.66	10.3998
153.80	10.4186
153.93	10.4374
154.07	10.4567
154.20	10.4760
154.33	10.4953
154.46	10.5147
154.60	10.5345
154.73	10.5548
154.86	10.5758
154.99	10.5964
155.13	10.6174
155.26	10.6386
155.39	10.6603
155.53	10.6823
155.66	10.7054
155.79	10.7294
155.93	10.7538
156.06	10.7786
156.19	10.8044
156.33	10.8305
156.46	10.8575
156.59	10.8850
156.72	10.9129
156.86	10.9416
156.99	10.9698
157.12	10.9992
157.26	11.0296
157.39	11.0605
157.53	11.0928
157.65	11.1250
157.79	11.1588
157.93	11.1938
158.06	11.2307
158.19	11.2680
158.32	11.3061
158.46	11.3455
158.59	11.3858
158.72	11.4273
158.85	11.4698
158.99	11.5127
159.12	11.5574
159.25	11.6022
159.38	11.6457
159.52	11.6898
159.65	11.7362
159.79	11.7852
159.92	11.8355
160.05	11.8872
160.19	11.9390
160.32	11.9915
160.45	12.0444
160.59	12.0980
160.72	12.1526
160.85	12.2076
160.98	12.2629
161.12	12.3190
161.25	12.3746
161.38	12.4301
161.51	12.4851
161.65	12.5394
161.78	12.5937
161.91	12.6491
162.05	12.7027
162.18	12.7557
162.32	12.8061
162.44	12.8552
162.58	12.9031
162.72	12.9468
162.85	12.9714
162.98	12.9983
163.11	13.0361
163.24	13.0791
163.38	13.1232
163.51	13.1665
163.64	13.2083
163.78	13.2493
163.91	13.2888
164.04	13.3274
164.18	13.3642
164.31	13.3999
164.44	13.4344
164.57	13.4680
164.70	13.5005
164.84	13.5313
164.97	13.5606
165.10	13.5892
165.24	13.6167
165.37	13.6434
165.50	13.6697
165.64	13.6946
165.77	13.7190
165.90	13.7422
166.04	13.7647
166.17	13.7856
166.30	13.8035
166.44	13.8183
166.57	13.8300
166.70	13.8390
166.84	13.8451
166.97	13.8476
167.10	13.8466
167.24	13.8411
167.37	13.8323
167.50	13.8193
167.63	13.8012
167.77	13.7773
167.90	13.7463
168.04	13.7082
168.17	13.6629
168.30	13.6107
168.44	13.5504
168.57	13.4820
168.70	13.4048
168.84	13.3180
168.97	13.2218
169.10	13.1164
169.24	13.0023
169.37	12.8803
169.50	12.7505
169.63	12.6139
169.77	12.4716
169.90	12.3257
170.03	12.1787
170.17	12.0328
170.30	11.8895
170.44	11.7516
170.58	11.6215
170.70	11.5004
170.84	11.3909
170.97	11.2932
171.10	11.2077
171.24	11.1339
171.37	11.0712
171.50	11.0196
171.64	10.9777
171.77	10.9450
171.90	10.9204
172.03	10.9014
172.17	10.8884
172.30	10.8799
172.43	10.8752
172.57	10.8738
172.70	10.8744
172.84	10.8767
172.97	10.8809
173.10	10.8862
173.23	10.8919
173.37	10.8994
173.50	10.9072
173.63	10.9150
173.77	10.9242
173.90	10.9337
174.03	10.9431
174.16	10.9531
174.30	10.9628
174.43	10.9727
174.56	10.9828
174.70	10.9932
174.83	11.0027
174.96	11.0132
175.10	11.0237
175.23	11.0339
175.36	11.0444
175.50	11.0544
175.63	11.0641
175.76	11.0748
175.90	11.0855
176.03	11.0964
176.16	11.1068
176.30	11.1174
176.43	11.1263
176.56	11.1362
176.69	11.1460
176.83	11.1556
176.96	11.1656
177.09	11.1758
177.23	11.1860
177.36	11.1964
177.49	11.2071
177.63	11.2182
177.76	11.2288
177.89	11.2394
178.03	11.2493
178.16	11.2602
178.30	11.2707
178.43	11.2804
178.56	11.2906
178.69	11.3011
178.83	11.3115
178.96	11.3218
179.09	11.3323
179.22	11.3433
179.36	11.3534
179.50	11.3637
179.63	11.3740
179.76	11.3840
179.89	11.3950
180.02	11.4061
180.16	11.4169
180.30	11.4273
180.43	11.4379
180.56	11.4482
180.69	11.4586
180.83	11.4694
180.96	11.4799
181.09	11.4904
181.22	11.5007
181.35	11.5107
181.49	11.5214
181.63	11.5324
181.76	11.5432
181.89	11.5546
182.02	11.5658
182.15	11.5763
182.29	11.5870
182.42	11.5972
182.55	11.6073
182.69	11.6179
182.82	11.6289
182.95	11.6397
183.08	11.6509
183.22	11.6618
183.35	11.6720
183.48	11.6827
183.62	11.6930
183.75	11.7033
183.88	11.7137
184.02	11.7246
184.15	11.7350
184.28	11.7459
184.41	11.7565
184.55	11.7673
184.68	11.7780
184.81	11.7889
184.95	11.7999
185.08	11.8108
185.22	11.8217
185.35	11.8327
185.48	11.8435
185.62	11.8543
185.75	11.8650
185.88	11.8755
186.02	11.8873
186.15	11.8985
186.28	11.9093
186.42	11.9197
186.55	11.9309
186.68	11.9421
186.82	11.9539
186.95	11.9655
187.09	11.9767
187.22	11.9875
187.35	11.9978
187.48	12.0081
187.62	12.0186
187.75	12.0290
187.89	12.0395
188.01	12.0507
188.15	12.0618
188.28	12.0726
188.42	12.0839
188.55	12.0948
188.69	12.1056
188.82	12.1170
188.94	12.1283
189.08	12.1391
189.21	12.1497
189.35	12.1619
189.49	12.1738
189.62	12.1855
189.75	12.1972
189.88	12.2083
190.01	12.2190
190.15	12.2302
190.28	12.2413
190.42	12.2520
190.55	12.2636
190.68	12.2746
190.82	12.2864
190.95	12.2984
191.08	12.3097
191.22	12.3206
191.35	12.3316
191.48	12.3425
191.62	12.3533
191.75	12.3649
191.88	12.3759
192.02	12.3868
192.15	12.3988
192.28	12.4104
192.41	12.4216
192.55	12.4331
192.68	12.4445
192.81	12.4558
192.94	12.4671
193.08	12.4786
193.21	12.4897
193.35	12.5013
193.48	12.5127
193.61	12.5244
193.75	12.5354
193.88	12.5467
194.01	12.5575
194.15	12.5686
194.28	12.5799
194.41	12.5910
194.55	12.6023
194.68	12.6143
194.82	12.6260
194.94	12.6372
195.08	12.6484
195.21	12.6599
195.34	12.6716
195.48	12.6832
195.61	12.6940
195.75	12.7051
195.88	12.7159
196.01	12.7270
196.15	12.7383
196.28	12.7495
196.42	12.7613
196.55	12.7726
196.68	12.7848
196.81	12.7964
196.94	12.8079
197.08	12.8188
197.22	12.8297
197.35	12.8411
197.48	12.8533
197.61	12.8650
197.75	12.8769
197.88	12.8887
198.02	12.9005
198.15	12.9123
198.28	12.9235
198.41	12.9355
198.55	12.9473
198.68	12.9589
198.82	12.9697
198.95	12.9805
199.08	12.9914
199.21	13.0034
199.35	13.0155
199.48	13.0271
199.61	13.0391
199.75	13.0503
199.88	13.0616