File: 论文/论文/dsc/chunPP.txt
Filename:	D:\TGAdata\„∆√ŒœÈ\20150506\chunPP.pdid

Temperature (°„C)	Heat Flow Endo Up (mW)
10.13	-6.4984
10.14	-5.8973
10.20	-5.2891
10.29	-4.6290
10.40	-4.1064
10.53	-3.6742
10.65	-3.2479
10.79	-2.7819
10.91	-2.2767
11.05	-1.7504
11.18	-1.2259
11.30	-0.7243
11.44	-0.2555
11.57	0.1742
11.70	0.5615
11.83	0.9093
11.97	1.2161
12.10	1.4866
12.23	1.7245
12.37	1.9324
12.50	2.1150
12.63	2.2731
12.76	2.4100
12.90	2.5293
13.03	2.6322
13.17	2.7231
13.30	2.8005
13.43	2.8678
13.57	2.9273
13.70	2.9790
13.83	3.0247
13.97	3.0635
14.10	3.0966
14.23	3.1262
14.37	3.1522
14.50	3.1762
14.64	3.1966
14.78	3.2144
14.90	3.2314
15.03	3.2459
15.17	3.2588
15.30	3.2704
15.43	3.2800
15.56	3.2897
15.70	3.2983
15.83	3.3063
15.97	3.3146
16.11	3.3207
16.23	3.3273
16.37	3.3339
16.50	3.3398
16.64	3.3456
16.77	3.3500
16.90	3.3547
17.04	3.3602
17.17	3.3658
17.30	3.3702
17.43	3.3754
17.57	3.3814
17.70	3.3866
17.84	3.3933
17.97	3.3978
18.10	3.4013
18.24	3.4060
18.37	3.4085
18.51	3.4115
18.63	3.4154
18.77	3.4173
18.90	3.4204
19.03	3.4231
19.16	3.4259
19.30	3.4301
19.43	3.4335
19.57	3.4361
19.70	3.4401
19.83	3.4430
19.97	3.4460
20.09	3.4500
20.23	3.4528
20.36	3.4562
20.50	3.4584
20.63	3.4605
20.76	3.4645
20.90	3.4678
21.03	3.4710
21.16	3.4759
21.30	3.4789
21.43	3.4828
21.56	3.4862
21.70	3.4879
21.82	3.4916
21.96	3.4953
22.09	3.4981
22.23	3.5028
22.36	3.5064
22.49	3.5091
22.62	3.5138
22.76	3.5169
22.89	3.5211
23.03	3.5251
23.16	3.5279
23.29	3.5315
23.43	3.5351
23.56	3.5381
23.69	3.5431
23.82	3.5459
23.95	3.5492
24.08	3.5540
24.22	3.5574
24.35	3.5609
24.48	3.5648
24.61	3.5669
24.75	3.5701
24.88	3.5733
25.01	3.5750
25.15	3.5783
25.28	3.5813
25.42	3.5845
25.55	3.5899
25.68	3.5931
25.81	3.5978
25.95	3.6015
26.08	3.6046
26.21	3.6097
26.34	3.6131
26.48	3.6162
26.61	3.6217
26.75	3.6249
26.88	3.6291
27.01	3.6325
27.14	3.6350
27.28	3.6384
27.41	3.6411
27.55	3.6437
27.68	3.6477
27.81	3.6516
27.95	3.6554
28.08	3.6598
28.21	3.6640
28.34	3.6683
28.48	3.6731
28.61	3.6771
28.74	3.6818
28.88	3.6854
29.01	3.6891
29.15	3.6941
29.28	3.6974
29.41	3.7016
29.54	3.7053
29.68	3.7085
29.81	3.7125
29.94	3.7160
30.08	3.7191
30.22	3.7240
30.34	3.7273
30.47	3.7308
30.61	3.7347
30.74	3.7373
30.88	3.7416
31.01	3.7452
31.14	3.7486
31.28	3.7533
31.41	3.7570
31.54	3.7615
31.68	3.7656
31.81	3.7685
31.94	3.7725
32.08	3.7762
32.21	3.7796
32.34	3.7842
32.48	3.7872
32.61	3.7905
32.74	3.7941
32.88	3.7970
33.00	3.8018
33.14	3.8052
33.27	3.8085
33.41	3.8128
33.54	3.8163
33.67	3.8206
33.80	3.8244
33.94	3.8280
34.07	3.8320
34.20	3.8356
34.33	3.8397
34.47	3.8455
34.60	3.8486
34.74	3.8516
34.87	3.8550
35.00	3.8582
35.13	3.8625
35.27	3.8664
35.40	3.8710
35.53	3.8759
35.67	3.8791
35.80	3.8835
35.93	3.8877
36.07	3.8923
36.20	3.8973
36.33	3.9008
36.46	3.9038
36.60	3.9074
36.73	3.9112
36.86	3.9156
37.00	3.9195
37.13	3.9234
37.26	3.9280
37.40	3.9321
37.54	3.9363
37.67	3.9407
37.80	3.9439
37.93	3.9484
38.06	3.9521
38.20	3.9559
38.33	3.9606
38.47	3.9645
38.59	3.9681
38.73	3.9719
38.86	3.9747
38.99	3.9784
39.13	3.9828
39.27	3.9873
39.40	3.9924
39.53	3.9964
39.66	4.0006
39.80	4.0044
39.93	4.0076
40.06	4.0126
40.19	4.0168
40.33	4.0216
40.46	4.0274
40.59	4.0317
40.73	4.0364
40.86	4.0404
40.99	4.0437
41.13	4.0482
41.26	4.0525
41.39	4.0565
41.52	4.0613
41.66	4.0646
41.79	4.0696
41.93	4.0733
42.06	4.0774
42.20	4.0812
42.33	4.0855
42.46	4.0911
42.59	4.0963
42.73	4.0998
42.85	4.1044
42.99	4.1085
43.13	4.1132
43.26	4.1175
43.39	4.1215
43.52	4.1273
43.66	4.1315
43.79	4.1357
43.92	4.1402
44.06	4.1444
44.19	4.1494
44.32	4.1533
44.46	4.1567
44.58	4.1607
44.72	4.1642
44.85	4.1682
44.99	4.1727
45.12	4.1762
45.25	4.1813
45.39	4.1854
45.52	4.1904
45.65	4.1961
45.79	4.2000
45.92	4.2054
46.05	4.2100
46.18	4.2138
46.33	4.2189
46.46	4.2227
46.59	4.2278
46.72	4.2324
46.85	4.2364
46.98	4.2414
47.12	4.2448
47.25	4.2491
47.39	4.2536
47.52	4.2578
47.65	4.2644
47.79	4.2689
47.92	4.2743
48.05	4.2799
48.18	4.2828
48.32	4.2882
48.45	4.2924
48.58	4.2962
48.72	4.3015
48.85	4.3049
48.98	4.3092
49.12	4.3139
49.25	4.3176
49.38	4.3221
49.52	4.3260
49.65	4.3303
49.79	4.3346
49.92	4.3387
50.05	4.3440
50.18	4.3484
50.32	4.3532
50.45	4.3585
50.59	4.3630
50.72	4.3686
50.84	4.3727
50.98	4.3769
51.12	4.3821
51.25	4.3868
51.38	4.3919
51.52	4.3971
51.65	4.4012
51.78	4.4070
51.91	4.4111
52.05	4.4151
52.18	4.4193
52.32	4.4230
52.45	4.4285
52.58	4.4331
52.72	4.4379
52.84	4.4435
52.98	4.4470
53.11	4.4514
53.25	4.4557
53.38	4.4606
53.51	4.4662
53.65	4.4702
53.77	4.4749
53.91	4.4789
54.04	4.4834
54.18	4.4887
54.31	4.4935
54.45	4.4983
54.58	4.5023
54.71	4.5062
54.84	4.5117
54.98	4.5158
55.11	4.5204
55.25	4.5247
55.38	4.5282
55.51	4.5331
55.64	4.5372
55.77	4.5423
55.91	4.5463
56.04	4.5508
56.18	4.5559
56.31	4.5606
56.45	4.5651
56.58	4.5698
56.71	4.5748
56.84	4.5803
56.98	4.5848
57.11	4.5891
57.24	4.5937
57.38	4.5974
57.51	4.6027
57.64	4.6080
57.77	4.6127
57.91	4.6180
58.04	4.6217
58.18	4.6261
58.31	4.6297
58.44	4.6330
58.58	4.6378
58.70	4.6422
58.84	4.6470
58.97	4.6520
59.11	4.6560
59.24	4.6611
59.37	4.6655
59.51	4.6707
59.64	4.6756
59.77	4.6802
59.90	4.6852
60.04	4.6884
60.17	4.6925
60.31	4.6959
60.44	4.6988
60.57	4.7035
60.70	4.7074
60.84	4.7124
60.98	4.7175
61.10	4.7208
61.24	4.7254
61.37	4.7285
61.50	4.7328
61.64	4.7374
61.77	4.7424
61.90	4.7481
62.04	4.7525
62.17	4.7570
62.30	4.7609
62.43	4.7654
62.57	4.7705
62.70	4.7744
62.84	4.7796
62.97	4.7846
63.10	4.7881
63.23	4.7936
63.37	4.7979
63.50	4.8027
63.63	4.8072
63.77	4.8112
63.90	4.8155
64.04	4.8192
64.17	4.8236
64.30	4.8282
64.43	4.8328
64.57	4.8381
64.70	4.8417
64.84	4.8464
64.97	4.8518
65.10	4.8558
65.24	4.8604
65.37	4.8644
65.50	4.8693
65.63	4.8736
65.77	4.8777
65.90	4.8825
66.03	4.8861
66.17	4.8904
66.30	4.8957
66.44	4.8987
66.57	4.9033
66.70	4.9074
66.83	4.9127
66.97	4.9178
67.10	4.9226
67.23	4.9280
67.37	4.9322
67.50	4.9359
67.63	4.9404
67.77	4.9445
67.90	4.9504
68.03	4.9549
68.17	4.9598
68.30	4.9643
68.44	4.9683
68.57	4.9735
68.70	4.9775
68.84	4.9818
68.97	4.9863
69.10	4.9904
69.24	4.9958
69.37	5.0004
69.50	5.0048
69.64	5.0098
69.77	5.0137
69.90	5.0197
70.03	5.0243
70.17	5.0295
70.30	5.0340
70.43	5.0381
70.56	5.0429
70.70	5.0471
70.83	5.0520
70.97	5.0559
71.10	5.0591
71.23	5.0641
71.36	5.0685
71.50	5.0739
71.63	5.0787
71.76	5.0832
71.90	5.0886
72.03	5.0935
72.16	5.0991
72.30	5.1036
72.43	5.1065
72.57	5.1109
72.70	5.1146
72.83	5.1200
72.97	5.1253
73.10	5.1307
73.24	5.1359
73.37	5.1410
73.50	5.1471
73.64	5.1522
73.77	5.1574
73.90	5.1627
74.04	5.1674
74.17	5.1730
74.30	5.1778
74.44	5.1826
74.57	5.1869
74.70	5.1906
74.84	5.1952
74.98	5.1998
75.10	5.2052
75.24	5.2109
75.37	5.2161
75.51	5.2212
75.63	5.2250
75.77	5.2293
75.90	5.2344
76.04	5.2394
76.17	5.2454
76.31	5.2508
76.44	5.2573
76.57	5.2621
76.71	5.2668
76.83	5.2722
76.97	5.2766
77.10	5.2817
77.24	5.2858
77.37	5.2908
77.50	5.2958
77.64	5.3010
77.78	5.3068
77.90	5.3120
78.04	5.3171
78.17	5.3222
78.30	5.3263
78.44	5.3321
78.57	5.3363
78.71	5.3409
78.84	5.3452
78.97	5.3495
79.10	5.3558
79.23	5.3608
79.37	5.3673
79.50	5.3729
79.64	5.3774
79.77	5.3823
79.90	5.3867
80.03	5.3924
80.17	5.3979
80.30	5.4043
80.43	5.4105
80.57	5.4162
80.70	5.4223
80.84	5.4276
80.97	5.4329
81.10	5.4384
81.23	5.4436
81.36	5.4500
81.50	5.4572
81.63	5.4637
81.77	5.4682
81.89	5.4730
82.03	5.4764
82.16	5.4813
82.30	5.4852
82.43	5.4899
82.57	5.4934
82.70	5.4988
82.83	5.5032
82.96	5.5079
83.10	5.5125
83.23	5.5187
83.37	5.5233
83.50	5.5279
83.63	5.5321
83.76	5.5380
83.89	5.5453
84.03	5.5509
84.16	5.5563
84.29	5.5615
84.42	5.5660
84.56	5.5700
84.70	5.5753
84.83	5.5812
84.96	5.5883
85.09	5.5946
85.22	5.6003
85.36	5.6056
85.49	5.6115
85.63	5.6176
85.75	5.6236
85.89	5.6288
86.03	5.6341
86.15	5.6395
86.29	5.6446
86.42	5.6497
86.55	5.6552
86.69	5.6609
86.82	5.6667
86.95	5.6731
87.09	5.6787
87.22	5.6849
87.34	5.6899
87.48	5.6958
87.62	5.7024
87.75	5.7093
87.88	5.7143
88.01	5.7193
88.15	5.7236
88.28	5.7286
88.41	5.7333
88.54	5.7394
88.68	5.7453
88.81	5.7516
88.95	5.7573
89.08	5.7635
89.21	5.7687
89.34	5.7749
89.48	5.7805
89.61	5.7864
89.74	5.7938
89.88	5.8003
90.00	5.8056
90.14	5.8103
90.27	5.8159
90.40	5.8212
90.53	5.8276
90.67	5.8333
90.80	5.8406
90.93	5.8467
91.07	5.8528
91.20	5.8584
91.34	5.8650
91.47	5.8700
91.60	5.8766
91.73	5.8824
91.87	5.8886
92.00	5.8950
92.14	5.9014
92.27	5.9069
92.40	5.9133
92.54	5.9205
92.67	5.9270
92.80	5.9329
92.93	5.9387
93.07	5.9448
93.20	5.9501
93.33	5.9569
93.47	5.9626
93.59	5.9680
93.73	5.9725
93.86	5.9780
94.00	5.9840
94.13	5.9906
94.27	5.9968
94.39	6.0031
94.53	6.0086
94.66	6.0151
94.80	6.0219
94.93	6.0278
95.06	6.0338
95.20	6.0403
95.33	6.0473
95.46	6.0544
95.59	6.0618
95.73	6.0681
95.86	6.0745
95.99	6.0809
96.13	6.0864
96.25	6.0917
96.39	6.0980
96.53	6.1018
96.66	6.1061
96.79	6.1117
96.92	6.1192
97.06	6.1264
97.19	6.1342
97.33	6.1426
97.46	6.1506
97.59	6.1574
97.73	6.1647
97.86	6.1723
97.99	6.1792
98.13	6.1859
98.26	6.1929
98.39	6.2000
98.53	6.2053
98.65	6.2107
98.79	6.2166
98.92	6.2239
99.05	6.2307
99.19	6.2376
99.33	6.2434
99.45	6.2506
99.59	6.2572
99.72	6.2634
99.85	6.2689
99.99	6.2756
100.12	6.2831
100.26	6.2896
100.39	6.2964
100.52	6.3029
100.65	6.3100
100.79	6.3163
100.92	6.3236
101.05	6.3298
101.19	6.3366
101.32	6.3425
101.45	6.3491
101.59	6.3558
101.72	6.3632
101.85	6.3698
101.99	6.3774
102.12	6.3847
102.25	6.3916
102.39	6.3979
102.52	6.4040
102.65	6.4107
102.79	6.4175
102.92	6.4236
103.05	6.4300
103.18	6.4370
103.32	6.4434
103.45	6.4510
103.59	6.4581
103.72	6.4646
103.85	6.4712
103.98	6.4781
104.12	6.4849
104.25	6.4920
104.38	6.4991
104.52	6.5074
104.65	6.5155
104.78	6.5224
104.92	6.5294
105.05	6.5357
105.18	6.5425
105.32	6.5493
105.45	6.5562
105.58	6.5626
105.71	6.5699
105.85	6.5762
105.98	6.5839
106.11	6.5915
106.25	6.5989
106.38	6.6063
106.51	6.6152
106.65	6.6231
106.78	6.6303
106.91	6.6378
107.05	6.6451
107.18	6.6520
107.31	6.6584
107.45	6.6647
107.58	6.6708
107.71	6.6781
107.84	6.6848
107.98	6.6924
108.11	6.6992
108.24	6.7059
108.38	6.7126
108.50	6.7205
108.64	6.7283
108.78	6.7357
108.90	6.7433
109.04	6.7505
109.18	6.7575
109.31	6.7646
109.44	6.7719
109.58	6.7788
109.71	6.7862
109.84	6.7928
109.98	6.8008
110.11	6.8077
110.25	6.8148
110.38	6.8212
110.51	6.8283
110.65	6.8350
110.78	6.8427
110.91	6.8506
111.04	6.8583
111.17	6.8661
111.31	6.8733
111.44	6.8815
111.58	6.8885
111.71	6.8959
111.84	6.9032
111.98	6.9101
112.11	6.9167
112.24	6.9248
112.38	6.9320
112.51	6.9395
112.64	6.9464
112.78	6.9544
112.90	6.9625
113.04	6.9695
113.18	6.9771
113.31	6.9845
113.44	6.9925
113.58	6.9999
113.70	7.0071
113.84	7.0138
113.98	7.0205
114.11	7.0279
114.24	7.0358
114.37	7.0444
114.50	7.0527
114.63	7.0608
114.78	7.0683
114.91	7.0759
115.04	7.0830
115.17	7.0911
115.30	7.0986
115.44	7.1073
115.57	7.1154
115.70	7.1237
115.84	7.1313
115.97	7.1393
116.10	7.1466
116.24	7.1542
116.37	7.1615
116.50	7.1704
116.64	7.1779
116.78	7.1859
116.90	7.1936
117.04	7.2015
117.17	7.2094
117.30	7.2172
117.44	7.2258
117.58	7.2337
117.70	7.2422
117.83	7.2502
117.97	7.2585
118.10	7.2658
118.23	7.2738
118.37	7.2811
118.50	7.2883
118.64	7.2956
118.77	7.3041
118.90	7.3119
119.03	7.3198
119.17	7.3284
119.30	7.3360
119.43	7.3445
119.57	7.3524
119.70	7.3613
119.83	7.3701
119.97	7.3793
120.10	7.3885
120.24	7.3971
120.37	7.4059
120.50	7.4142
120.63	7.4226
120.77	7.4306
120.90	7.4390
121.04	7.4468
121.17	7.4555
121.30	7.4635
121.44	7.4716
121.57	7.4798
121.70	7.4882
121.83	7.4968
121.97	7.5053
122.10	7.5138
122.24	7.5224
122.37	7.5316
122.50	7.5396
122.63	7.5483
122.77	7.5558
122.90	7.5648
123.03	7.5731
123.17	7.5819
123.30	7.5909
123.43	7.6001
123.57	7.6089
123.70	7.6177
123.84	7.6268
123.97	7.6351
124.10	7.6431
124.23	7.6514
124.37	7.6607
124.50	7.6688
124.63	7.6780
124.76	7.6860
124.90	7.6946
125.03	7.7026
125.16	7.7115
125.30	7.7198
125.43	7.7290
125.56	7.7380
125.69	7.7465
125.83	7.7557
125.96	7.7645
126.10	7.7740
126.23	7.7827
126.36	7.7925
126.50	7.8011
126.63	7.8100
126.76	7.8188
126.90	7.8280
127.03	7.8367
127.15	7.8457
127.30	7.8542
127.43	7.8625
127.56	7.8711
127.70	7.8801
127.83	7.8892
127.96	7.8985
128.09	7.9086
128.23	7.9177
128.36	7.9269
128.50	7.9364
128.63	7.9462
128.76	7.9560
128.89	7.9654
129.03	7.9743
129.16	7.9820
129.30	7.9913
129.43	7.9998
129.56	8.0093
129.69	8.0186
129.83	8.0282
129.96	8.0375
130.09	8.0470
130.22	8.0567
130.36	8.0670
130.50	8.0763
130.63	8.0859
130.76	8.0957
130.90	8.1048
131.03	8.1151
131.16	8.1246
131.29	8.1345
131.43	8.1442
131.56	8.1542
131.69	8.1646
131.83	8.1742
131.96	8.1841
132.10	8.1929
132.23	8.2027
132.36	8.2124
132.50	8.2226
132.63	8.2319
132.76	8.2424
132.89	8.2511
133.03	8.2604
133.16	8.2706
133.30	8.2807
133.43	8.2909
133.56	8.3014
133.69	8.3120
133.83	8.3220
133.96	8.3324
134.09	8.3430
134.22	8.3530
134.36	8.3627
134.50	8.3733
134.63	8.3835
134.76	8.3942
134.89	8.4049
135.03	8.4157
135.16	8.4262
135.29	8.4366
135.43	8.4467
135.56	8.4568
135.69	8.4667
135.83	8.4756
135.96	8.4852
136.10	8.4955
136.22	8.5067
136.35	8.5169
136.49	8.5270
136.63	8.5381
136.76	8.5483
136.89	8.5598
137.03	8.5703
137.16	8.5815
137.29	8.5920
137.43	8.6033
137.56	8.6142
137.69	8.6254
137.83	8.6359
137.96	8.6461
138.10	8.6567
138.22	8.6671
138.36	8.6792
138.50	8.6905
138.63	8.7022
138.76	8.7129
138.89	8.7241
139.03	8.7353
139.16	8.7464
139.30	8.7579
139.43	8.7701
139.56	8.7826
139.69	8.7934
139.83	8.8051
139.96	8.8163
140.10	8.8277
140.23	8.8389
140.36	8.8499
140.50	8.8609
140.63	8.8726
140.76	8.8844
140.90	8.8956
141.03	8.9074
141.16	8.9184
141.30	8.9304
141.43	8.9427
141.56	8.9560
141.69	8.9685
141.83	8.9811
141.96	8.9939
142.10	9.0064
142.23	9.0190
142.37	9.0312
142.50	9.0438
142.63	9.0567
142.76	9.0700
142.90	9.0831
143.03	9.0972
143.16	9.1101
143.30	9.1234
143.43	9.1365
143.57	9.1499
143.69	9.1637
143.83	9.1769
143.97	9.1914
144.10	9.2057
144.23	9.2203
144.36	9.2358
144.50	9.2523
144.63	9.2683
144.76	9.2845
144.90	9.3005
145.03	9.3165
145.16	9.3319
145.30	9.3478
145.43	9.3642
145.56	9.3810
145.69	9.3970
145.83	9.4132
145.96	9.4298
146.09	9.4461
146.22	9.4622
146.36	9.4788
146.49	9.4949
146.62	9.5117
146.76	9.5288
146.89	9.5446
147.02	9.5607
147.15	9.5769
147.29	9.5928
147.43	9.6082
147.56	9.6234
147.69	9.6377
147.82	9.6516
147.95	9.6658
148.09	9.6789
148.22	9.6918
148.35	9.7045
148.49	9.7165
148.62	9.7288
148.75	9.7402
148.89	9.7506
149.02	9.7603
149.15	9.7690
149.28	9.7771
149.42	9.7841
149.55	9.7915
149.68	9.7987
149.82	9.8064
149.95	9.8144
150.08	9.8222
150.21	9.8304
150.35	9.8385
150.48	9.8473
150.61	9.8570
150.75	9.8673
150.88	9.8791
151.01	9.8923
151.15	9.9058
151.28	9.9205
151.41	9.9352
151.55	9.9515
151.68	9.9687
151.81	9.9865
151.94	10.0040
152.08	10.0233
152.21	10.0430
152.34	10.0629
152.47	10.0839
152.61	10.1059
152.73	10.1274
152.88	10.1490
153.00	10.1711
153.14	10.1934
153.27	10.2166
153.40	10.2397
153.54	10.2625
153.67	10.2855
153.80	10.3075
153.93	10.3298
154.07	10.3525
154.19	10.3752
154.33	10.3982
154.47	10.4214
154.60	10.4443
154.73	10.4664
154.86	10.4888
155.00	10.5106
155.13	10.5323
155.25	10.5545
155.40	10.5764
155.53	10.5980
155.66	10.6198
155.80	10.6416
155.93	10.6639
156.06	10.6864
156.19	10.7090
156.33	10.7325
156.46	10.7561
156.59	10.7808
156.73	10.8055
156.86	10.8303
157.00	10.8546
157.13	10.8803
157.26	10.9068
157.40	10.9333
157.53	10.9605
157.66	10.9889
157.79	11.0175
157.93	11.0475
158.06	11.0781
158.19	11.1093
158.33	11.1414
158.46	11.1738
158.59	11.2069
158.73	11.2413
158.85	11.2768
158.99	11.3132
159.13	11.3507
159.26	11.3891
159.39	11.4283
159.52	11.4684
159.65	11.5099
159.79	11.5521
159.92	11.5970
160.05	11.6433
160.19	11.6910
160.32	11.7404
160.45	11.7906
160.59	11.8425
160.72	11.8954
160.85	11.9499
160.98	12.0060
161.12	12.0636
161.25	12.1219
161.38	12.1806
161.52	12.2411
161.65	12.3031
161.78	12.3663
161.92	12.4316
162.05	12.4967
162.18	12.5615
162.31	12.6269
162.44	12.6920
162.58	12.7567
162.72	12.8211
162.85	12.8851
162.97	12.9527
163.11	13.0269
163.25	13.0987
163.38	13.1672
163.51	13.2331
163.65	13.2973
163.78	13.3597
163.91	13.4215
164.04	13.4825
164.18	13.5428
164.30	13.6027
164.44	13.6612
164.58	13.7182
164.71	13.7743
164.84	13.8291
164.97	13.8825
165.11	13.9344
165.24	13.9855
165.38	14.0352
165.51	14.0835
165.64	14.1302
165.78	14.1754
165.90	14.2198
166.04	14.2632
166.17	14.3062
166.31	14.3466
166.44	14.3850
166.57	14.4206
166.70	14.4548
166.84	14.4883
166.97	14.5211
167.10	14.5531
167.24	14.5842
167.37	14.6135
167.50	14.6416
167.63	14.6681
167.77	14.6926
167.90	14.7154
168.03	14.7362
168.17	14.7554
168.31	14.7725
168.44	14.7865
168.57	14.7974
168.71	14.8045
168.83	14.8066
168.97	14.8046
169.10	14.7981
169.23	14.7864
169.37	14.7693
169.50	14.7456
169.63	14.7147
169.77	14.6768
169.90	14.6313
170.04	14.5761
170.17	14.5108
170.30	14.4358
170.44	14.3493
170.58	14.2508
170.70	14.1394
170.83	14.0139
170.97	13.8745
171.10	13.7221
171.24	13.5567
171.37	13.3795
171.50	13.1926
171.64	12.9987
171.77	12.8007
171.90	12.6032
172.03	12.4097
172.17	12.2234
172.30	12.0472
172.43	11.8847
172.57	11.7366
172.70	11.6026
172.83	11.4839
172.97	11.3783
173.10	11.2866
173.24	11.2074
173.37	11.1401
173.50	11.0818
173.63	11.0327
173.77	10.9921
173.90	10.9594
174.04	10.9325
174.17	10.9117
174.30	10.8948
174.43	10.8819
174.57	10.8726
174.70	10.8670
174.83	10.8635
174.97	10.8623
175.10	10.8625
175.23	10.8632
175.36	10.8657
175.50	10.8689
175.63	10.8726
175.76	10.8783
175.90	10.8844
176.03	10.8915
176.16	10.8993
176.30	10.9084
176.43	10.9170
176.56	10.9253
176.70	10.9336
176.83	10.9413
176.97	10.9488
177.10	10.9570
177.23	10.9654
177.37	10.9744
177.50	10.9840
177.63	10.9937
177.76	11.0042
177.90	11.0144
178.03	11.0239
178.16	11.0336
178.30	11.0439
178.43	11.0539
178.56	11.0651
178.69	11.0758
178.83	11.0859
178.96	11.0957
179.10	11.1057
179.23	11.1160
179.36	11.1261
179.49	11.1365
179.63	11.1462
179.76	11.1557
179.90	11.1658
180.03	11.1759
180.16	11.1862
180.29	11.1973
180.43	11.2081
180.56	11.2189
180.69	11.2305
180.83	11.2411
180.96	11.2514
181.09	11.2614
181.22	11.2714
181.36	11.2815
181.49	11.2916
181.63	11.3015
181.76	11.3115
181.89	11.3223
182.03	11.3334
182.15	11.3433
182.29	11.3535
182.42	11.3635
182.55	11.3741
182.69	11.3843
182.82	11.3959
182.95	11.4068
183.09	11.4173
183.22	11.4277
183.35	11.4377
183.49	11.4477
183.62	11.4581
183.75	11.4676
183.88	11.4777
184.02	11.4882
184.15	11.4983
184.28	11.5089
184.42	11.5190
184.55	11.5297
184.69	11.5407
184.82	11.5519
184.95	11.5630
185.08	11.5738
185.22	11.5855
185.35	11.5954
185.48	11.6047
185.62	11.6147
185.75	11.6250
185.89	11.6360
186.02	11.6470
186.15	11.6580
186.29	11.6695
186.42	11.6797
186.55	11.6894
186.69	11.7000
186.82	11.7112
186.95	11.7227
187.09	11.7345
187.22	11.7451
187.35	11.7560
187.48	11.7661
187.62	11.7772
187.75	11.7879
187.88	11.7977
188.02	11.8085
188.15	11.8185
188.28	11.8286
188.42	11.8385
188.55	11.8492
188.69	11.8593
188.81	11.8700
188.95	11.8810
189.08	11.8918
189.22	11.9028
189.35	11.9140
189.48	11.9245
189.62	11.9345
189.75	11.9455
189.88	11.9573
190.02	11.9694
190.15	11.9816
190.29	11.9931
190.42	12.0045
190.55	12.0156
190.68	12.0268
190.82	12.0381
190.95	12.0496
191.08	12.0606
191.22	12.0717
191.35	12.0829
191.48	12.0947
191.62	12.1055
191.75	12.1169
191.88	12.1278
192.02	12.1383
192.15	12.1493
192.28	12.1601
192.42	12.1704
192.55	12.1808
192.68	12.1911
192.81	12.2019
192.94	12.2130
193.08	12.2241
193.21	12.2351
193.35	12.2464
193.48	12.2571
193.61	12.2676
193.75	12.2791
193.88	12.2910
194.02	12.3021
194.15	12.3129
194.28	12.3242
194.41	12.3351
194.55	12.3458
194.68	12.3572
194.82	12.3685
194.95	12.3795
195.08	12.3904
195.22	12.4010
195.35	12.4119
195.48	12.4232
195.62	12.4345
195.75	12.4452
195.88	12.4568
196.02	12.4683
196.15	12.4800
196.28	12.4915
196.41	12.5031
196.55	12.5139
196.68	12.5250
196.81	12.5360
196.95	12.5468
197.08	12.5580
197.21	12.5695
197.35	12.5801
197.48	12.5915
197.61	12.6035
197.75	12.6150
197.88	12.6266
198.01	12.6382
198.15	12.6500
198.28	12.6616
198.42	12.6728
198.55	12.6840
198.68	12.6943
198.82	12.7049
198.94	12.7150
199.08	12.7262
199.21	12.7374
199.35	12.7484
199.48	12.7591
199.62	12.7704
199.75	12.7821
199.88	12.7936